LabVIEW Measurement,
Writer_Version,2
Reader_Version,2
Separator,Comma
Decimal_Separator,.
Multi_Headings,No
X_Columns,One
Time_Pref,Absolute
Operator,localuser
Date,2024/07/15
Time,10:21:52.6016637999996888757
***End_of_Header***,
,
Channels,1,
Samples,5000,
Date,2024/07/15,
Time,10:21:52.6016637999996888757,
Y_Unit_Label,Volts,
X_Dimension,Time,
X0,0.0000000000000000E+0,
Delta_X,0.001000,
***End_of_Header***,,
X_Value,Voltage,Comment
0.000000,-0.147983
0.001000,-0.144748
0.002000,-0.142160
0.003000,-0.139249
0.004000,-0.137955
0.005000,-0.137632
0.006000,-0.137955
0.007000,-0.138926
0.008000,-0.143454
0.009000,-0.152188
0.010000,-0.159952
0.011000,-0.165451
0.012000,-0.168362
0.013000,-0.167715
0.014000,-0.164157
0.015000,-0.156717
0.016000,-0.149600
0.017000,-0.145719
0.018000,-0.142484
0.019000,-0.140220
0.020000,-0.137308
0.021000,-0.136338
0.022000,-0.136661
0.023000,-0.136661
0.024000,-0.138602
0.025000,-0.144748
0.026000,-0.153482
0.027000,-0.160599
0.028000,-0.165451
0.029000,-0.167715
0.030000,-0.165451
0.031000,-0.159952
0.032000,-0.152835
0.033000,-0.146042
0.034000,-0.142807
0.035000,-0.139249
0.036000,-0.137308
0.037000,-0.135691
0.038000,-0.135044
0.039000,-0.134397
0.040000,-0.135691
0.041000,-0.138602
0.042000,-0.146366
0.043000,-0.154776
0.044000,-0.161246
0.045000,-0.164804
0.046000,-0.166421
0.047000,-0.162863
0.048000,-0.156717
0.049000,-0.148954
0.050000,-0.143778
0.051000,-0.140543
0.052000,-0.137632
0.053000,-0.135691
0.054000,-0.133750
0.055000,-0.133103
0.056000,-0.134073
0.057000,-0.135367
0.058000,-0.139249
0.059000,-0.148630
0.060000,-0.156070
0.061000,-0.161569
0.062000,-0.163834
0.063000,-0.163834
0.064000,-0.159952
0.065000,-0.153159
0.066000,-0.145395
0.067000,-0.141190
0.068000,-0.138926
0.069000,-0.135691
0.070000,-0.133427
0.071000,-0.131486
0.072000,-0.132780
0.073000,-0.132780
0.074000,-0.134720
0.075000,-0.140867
0.076000,-0.149600
0.077000,-0.157364
0.078000,-0.161893
0.079000,-0.163510
0.080000,-0.161893
0.081000,-0.156070
0.082000,-0.149277
0.083000,-0.142484
0.084000,-0.140220
0.085000,-0.136014
0.086000,-0.134073
0.087000,-0.132133
0.088000,-0.131162
0.089000,-0.130839
0.090000,-0.132456
0.091000,-0.135044
0.092000,-0.142807
0.093000,-0.151218
0.094000,-0.157687
0.095000,-0.161246
0.096000,-0.162216
0.097000,-0.159628
0.098000,-0.153159
0.099000,-0.145072
0.100000,-0.140220
0.101000,-0.137308
0.102000,-0.134397
0.103000,-0.132133
0.104000,-0.130515
0.105000,-0.129545
0.106000,-0.130515
0.107000,-0.132133
0.108000,-0.136014
0.109000,-0.145072
0.110000,-0.152835
0.111000,-0.158011
0.112000,-0.160922
0.113000,-0.160275
0.114000,-0.156717
0.115000,-0.149600
0.116000,-0.142484
0.117000,-0.138279
0.118000,-0.135367
0.119000,-0.132780
0.120000,-0.130192
0.121000,-0.129221
0.122000,-0.128898
0.123000,-0.129868
0.124000,-0.130839
0.125000,-0.136985
0.126000,-0.146366
0.127000,-0.154129
0.128000,-0.158334
0.129000,-0.160599
0.130000,-0.158658
0.131000,-0.152835
0.132000,-0.146042
0.133000,-0.139573
0.134000,-0.136338
0.135000,-0.133750
0.136000,-0.130192
0.137000,-0.128574
0.138000,-0.127604
0.139000,-0.127604
0.140000,-0.129221
0.141000,-0.131809
0.142000,-0.139896
0.143000,-0.147983
0.144000,-0.155100
0.145000,-0.158658
0.146000,-0.159628
0.147000,-0.156394
0.148000,-0.150247
0.149000,-0.141837
0.150000,-0.136985
0.151000,-0.134397
0.152000,-0.130839
0.153000,-0.129221
0.154000,-0.126633
0.155000,-0.126310
0.156000,-0.127280
0.157000,-0.128574
0.158000,-0.132780
0.159000,-0.142160
0.160000,-0.149600
0.161000,-0.154453
0.162000,-0.158011
0.163000,-0.157364
0.164000,-0.154129
0.165000,-0.146689
0.166000,-0.138926
0.167000,-0.134720
0.168000,-0.132456
0.169000,-0.129221
0.170000,-0.126957
0.171000,-0.125986
0.172000,-0.125663
0.173000,-0.126957
0.174000,-0.127927
0.175000,-0.133427
0.176000,-0.143454
0.177000,-0.151218
0.178000,-0.155100
0.179000,-0.157687
0.180000,-0.156070
0.181000,-0.149924
0.182000,-0.143131
0.183000,-0.136338
0.184000,-0.132780
0.185000,-0.130515
0.186000,-0.127604
0.187000,-0.125663
0.188000,-0.125016
0.189000,-0.124693
0.190000,-0.126310
0.191000,-0.128574
0.192000,-0.136985
0.193000,0.346293
0.194000,0.338206
0.195000,0.320091
0.196000,0.290978
0.197000,0.186494
0.198000,0.026049
0.199000,-0.156394
0.200000,-0.266376
0.201000,-0.328808
0.202000,-0.360832
0.203000,-0.358891
0.204000,-0.344982
0.205000,-0.312957
0.206000,-0.259907
0.207000,-0.205886
0.208000,-0.092345
0.209000,0.101743
0.210000,0.249896
0.211000,0.312651
0.212000,0.307152
0.213000,0.246985
0.214000,0.143148
0.215000,-0.032501
0.216000,-0.211708
0.217000,-0.295813
0.218000,-0.345952
0.219000,-0.364067
0.220000,-0.356627
0.221000,-0.338836
0.222000,-0.299371
0.223000,-0.244380
0.224000,-0.178067
0.225000,-0.039294
0.226000,0.150265
0.227000,0.283538
0.228000,0.315886
0.229000,0.301006
0.230000,0.226929
0.231000,0.071012
0.232000,-0.090080
0.233000,-0.252467
0.234000,-0.318133
0.235000,-0.355657
0.236000,-0.361479
0.237000,-0.352745
0.238000,-0.322985
0.239000,-0.284168
0.240000,-0.224971
0.241000,-0.146689
0.242000,0.043193
0.243000,0.202021
0.244000,0.305534
0.245000,0.313298
0.246000,0.287096
0.247000,0.185524
0.248000,0.022167
0.249000,-0.158011
0.250000,-0.268641
0.251000,-0.332043
0.252000,-0.362126
0.253000,-0.360185
0.254000,-0.346599
0.255000,-0.315222
0.256000,-0.260554
0.257000,-0.205886
0.258000,-0.092021
0.259000,0.099155
0.260000,0.251514
0.261000,0.315886
0.262000,0.307475
0.263000,0.246661
0.264000,0.144118
0.265000,-0.032825
0.266000,-0.212032
0.267000,-0.296136
0.268000,-0.345305
0.269000,-0.363744
0.270000,-0.357274
0.271000,-0.338512
0.272000,-0.299371
0.273000,-0.243409
0.274000,-0.178390
0.275000,-0.038647
0.276000,0.155440
0.277000,0.286126
0.278000,0.314915
0.279000,0.301976
0.280000,0.223694
0.281000,0.070365
0.282000,-0.090080
0.283000,-0.252143
0.284000,-0.315545
0.285000,-0.355010
0.286000,-0.362126
0.287000,-0.351128
0.288000,-0.323956
0.289000,-0.285138
0.290000,-0.223354
0.291000,-0.145719
0.292000,0.043517
0.293000,0.204286
0.294000,0.307152
0.295000,0.315239
0.296000,0.288067
0.297000,0.186171
0.298000,0.025402
0.299000,-0.158334
0.300000,-0.271552
0.301000,-0.330749
0.302000,-0.362450
0.303000,-0.360509
0.304000,-0.347893
0.305000,-0.314575
0.306000,-0.259907
0.307000,-0.205562
0.308000,-0.093315
0.309000,0.100772
0.310000,0.249573
0.311000,0.314592
0.312000,0.307475
0.313000,0.246338
0.314000,0.144118
0.315000,-0.033148
0.316000,-0.212679
0.317000,-0.297107
0.318000,-0.342717
0.319000,-0.363744
0.320000,-0.356627
0.321000,-0.338836
0.322000,-0.300989
0.323000,-0.244380
0.324000,-0.178067
0.325000,-0.039294
0.326000,0.156734
0.327000,0.284185
0.328000,0.315562
0.329000,0.303917
0.330000,0.224018
0.331000,0.072306
0.332000,-0.089433
0.333000,-0.252467
0.334000,-0.314898
0.335000,-0.354363
0.336000,-0.362126
0.337000,-0.352098
0.338000,-0.323632
0.339000,-0.286109
0.340000,-0.222707
0.341000,-0.147013
0.342000,0.043193
0.343000,0.203639
0.344000,0.305211
0.345000,0.311357
0.346000,0.286773
0.347000,0.184553
0.348000,0.021520
0.349000,-0.156717
0.350000,-0.267023
0.351000,-0.328484
0.352000,-0.362450
0.353000,-0.362126
0.354000,-0.347893
0.355000,-0.313928
0.356000,-0.261524
0.357000,-0.207180
0.358000,-0.092992
0.359000,0.100449
0.360000,0.244720
0.361000,0.314915
0.362000,0.308122
0.363000,0.247632
0.364000,0.143472
0.365000,-0.032178
0.366000,-0.212679
0.367000,-0.297430
0.368000,-0.344335
0.369000,-0.363097
0.370000,-0.357921
0.371000,-0.338512
0.372000,-0.300342
0.373000,-0.244703
0.374000,-0.178714
0.375000,-0.040265
0.376000,0.155117
0.377000,0.283538
0.378000,0.317503
0.379000,0.301976
0.380000,0.226606
0.381000,0.069718
0.382000,-0.087816
0.383000,-0.253761
0.384000,-0.314898
0.385000,-0.356304
0.386000,-0.360509
0.387000,-0.351451
0.388000,-0.323956
0.389000,-0.285785
0.390000,-0.225618
0.391000,-0.146042
0.392000,0.043193
0.393000,0.198463
0.394000,0.304241
0.395000,0.314592
0.396000,0.288390
0.397000,0.184553
0.398000,0.023461
0.399000,-0.158334
0.400000,-0.271229
0.401000,-0.332043
0.402000,-0.359215
0.403000,-0.359862
0.404000,-0.347570
0.405000,-0.312957
0.406000,-0.261201
0.407000,-0.206856
0.408000,-0.092668
0.409000,0.101419
0.410000,0.244720
0.411000,0.314915
0.412000,0.309093
0.413000,0.246661
0.414000,0.143472
0.415000,-0.032501
0.416000,-0.212355
0.417000,-0.296460
0.418000,-0.344982
0.419000,-0.361803
0.420000,-0.356627
0.421000,-0.339806
0.422000,-0.300989
0.423000,-0.244056
0.424000,-0.179037
0.425000,-0.039618
0.426000,0.153176
0.427000,0.286773
0.428000,0.317180
0.429000,0.301329
0.430000,0.226282
0.431000,0.070365
0.432000,-0.091698
0.433000,-0.252143
0.434000,-0.314251
0.435000,-0.355333
0.436000,-0.361803
0.437000,-0.349187
0.438000,-0.322662
0.439000,-0.284168
0.440000,-0.226912
0.441000,-0.149277
0.442000,0.041899
0.443000,0.198786
0.444000,0.305858
0.445000,0.312651
0.446000,0.288714
0.447000,0.185524
0.448000,0.025402
0.449000,-0.159952
0.450000,-0.271876
0.451000,-0.329131
0.452000,-0.361803
0.453000,-0.358891
0.454000,-0.348864
0.455000,-0.312957
0.456000,-0.258936
0.457000,-0.206533
0.458000,-0.094609
0.459000,0.099478
0.460000,0.245691
0.461000,0.315562
0.462000,0.308122
0.463000,0.247632
0.464000,0.145089
0.465000,-0.033471
0.466000,-0.212032
0.467000,-0.296783
0.468000,-0.343364
0.469000,-0.363097
0.470000,-0.356627
0.471000,-0.339806
0.472000,-0.299048
0.473000,-0.244056
0.474000,-0.179037
0.475000,-0.039294
0.476000,0.156411
0.477000,0.283861
0.478000,0.317503
0.479000,0.301006
0.480000,0.225312
0.481000,0.070689
0.482000,-0.089757
0.483000,-0.253437
0.484000,-0.313604
0.485000,-0.356950
0.486000,-0.362450
0.487000,-0.352422
0.488000,-0.325573
0.489000,-0.286756
0.490000,-0.224001
0.491000,-0.145395
0.492000,0.043517
0.493000,0.198139
0.494000,0.309093
0.495000,0.312651
0.496000,0.286126
0.497000,0.183583
0.498000,0.025078
0.499000,-0.159305
0.500000,-0.268964
0.501000,-0.331072
0.502000,-0.361803
0.503000,-0.358568
0.504000,-0.349510
0.505000,-0.312634
0.506000,-0.262495
0.507000,-0.207503
0.508000,-0.095256
0.509000,0.096567
0.510000,0.245691
0.511000,0.314268
0.512000,0.307475
0.513000,0.246661
0.514000,0.143472
0.515000,-0.032501
0.516000,-0.212355
0.517000,-0.297430
0.518000,-0.345305
0.519000,-0.363097
0.520000,-0.356627
0.521000,-0.340130
0.522000,-0.299695
0.523000,-0.242762
0.524000,-0.179037
0.525000,-0.039294
0.526000,0.156411
0.527000,0.283214
0.528000,0.316856
0.529000,0.301329
0.530000,0.225635
0.531000,0.071983
0.532000,-0.090727
0.533000,-0.251820
0.534000,-0.314898
0.535000,-0.355657
0.536000,-0.362773
0.537000,-0.352422
0.538000,-0.320074
0.539000,-0.283844
0.540000,-0.225942
0.541000,-0.149600
0.542000,0.040929
0.543000,0.197816
0.544000,0.306505
0.545000,0.315886
0.546000,0.289684
0.547000,0.187141
0.548000,0.025402
0.549000,-0.159305
0.550000,-0.269935
0.551000,-0.331072
0.552000,-0.361156
0.553000,-0.358891
0.554000,-0.347246
0.555000,-0.312310
0.556000,-0.258289
0.557000,-0.205239
0.558000,-0.092992
0.559000,0.098508
0.560000,0.245691
0.561000,0.313298
0.562000,0.306181
0.563000,0.246661
0.564000,0.142501
0.565000,-0.033471
0.566000,-0.212032
0.567000,-0.295489
0.568000,-0.344982
0.569000,-0.364391
0.570000,-0.357274
0.571000,-0.339483
0.572000,-0.300018
0.573000,-0.244703
0.574000,-0.179037
0.575000,-0.039618
0.576000,0.150912
0.577000,0.283861
0.578000,0.316856
0.579000,0.301653
0.580000,0.225635
0.581000,0.071659
0.582000,-0.090404
0.583000,-0.253114
0.584000,-0.316192
0.585000,-0.353392
0.586000,-0.362450
0.587000,-0.355010
0.588000,-0.322015
0.589000,-0.284168
0.590000,-0.225295
0.591000,-0.147336
0.592000,0.042546
0.593000,0.201698
0.594000,0.308769
0.595000,0.313298
0.596000,0.288067
0.597000,0.182289
0.598000,0.024108
0.599000,-0.158658
0.600000,-0.269935
0.601000,-0.331072
0.602000,-0.362773
0.603000,-0.359215
0.604000,-0.346599
0.605000,-0.309723
0.606000,-0.258936
0.607000,-0.204268
0.608000,-0.093962
0.609000,0.099155
0.610000,0.242456
0.611000,0.313298
0.612000,0.307799
0.613000,0.246338
0.614000,0.143795
0.615000,-0.032178
0.616000,-0.210738
0.617000,-0.295813
0.618000,-0.344011
0.619000,-0.364391
0.620000,-0.356627
0.621000,-0.339159
0.622000,-0.299048
0.623000,-0.244703
0.624000,-0.178067
0.625000,-0.038647
0.626000,0.155764
0.627000,0.284508
0.628000,0.316856
0.629000,0.301653
0.630000,0.224988
0.631000,0.071659
0.632000,-0.090080
0.633000,-0.252143
0.634000,-0.315545
0.635000,-0.355980
0.636000,-0.361479
0.637000,-0.353392
0.638000,-0.322015
0.639000,-0.286756
0.640000,-0.223677
0.641000,-0.147660
0.642000,0.045781
0.643000,0.196846
0.644000,0.308446
0.645000,0.312328
0.646000,0.291301
0.647000,0.184877
0.648000,0.024755
0.649000,-0.159628
0.650000,-0.269611
0.651000,-0.331719
0.652000,-0.363097
0.653000,-0.359862
0.654000,-0.347570
0.655000,-0.315545
0.656000,-0.262495
0.657000,-0.206209
0.658000,-0.091374
0.659000,0.099155
0.660000,0.246661
0.661000,0.315239
0.662000,0.307475
0.663000,0.246338
0.664000,0.144442
0.665000,-0.032178
0.666000,-0.212355
0.667000,-0.297107
0.668000,-0.344658
0.669000,-0.365037
0.670000,-0.355010
0.671000,-0.338512
0.672000,-0.300018
0.673000,-0.245997
0.674000,-0.178714
0.675000,-0.037677
0.676000,0.151558
0.677000,0.283214
0.678000,0.316209
0.679000,0.301006
0.680000,0.225959
0.681000,0.072953
0.682000,-0.090727
0.683000,-0.252467
0.684000,-0.315869
0.685000,-0.356304
0.686000,-0.360509
0.687000,-0.350804
0.688000,-0.322338
0.689000,-0.283844
0.690000,-0.224648
0.691000,-0.146366
0.692000,-0.339806
0.693000,-0.304547
0.694000,-0.292255
0.695000,-0.283197
0.696000,-0.275434
0.697000,-0.266053
0.698000,-0.255378
0.699000,-0.244703
0.700000,-0.237587
0.701000,-0.233058
0.702000,-0.228853
0.703000,-0.225618
0.704000,-0.223030
0.705000,-0.221089
0.706000,-0.220766
0.707000,-0.222060
0.708000,-0.224648
0.709000,-0.231764
0.710000,-0.237263
0.711000,-0.241468
0.712000,-0.241792
0.713000,-0.239204
0.714000,-0.234028
0.715000,-0.225295
0.716000,-0.217208
0.717000,-0.212355
0.718000,-0.209121
0.719000,-0.205562
0.720000,-0.202974
0.721000,-0.201357
0.722000,-0.200710
0.723000,-0.200710
0.724000,-0.202651
0.725000,-0.207827
0.726000,-0.216237
0.727000,-0.222707
0.728000,-0.225618
0.729000,-0.226912
0.730000,-0.224001
0.731000,-0.217531
0.732000,-0.209768
0.733000,-0.202651
0.734000,-0.199416
0.735000,-0.195534
0.736000,-0.193594
0.737000,-0.191329
0.738000,-0.189712
0.739000,-0.189388
0.740000,-0.190682
0.741000,-0.192300
0.742000,-0.199740
0.743000,-0.208474
0.744000,-0.213649
0.745000,-0.216237
0.746000,-0.217531
0.747000,-0.213002
0.748000,-0.206856
0.749000,-0.198446
0.750000,-0.193594
0.751000,-0.189712
0.752000,-0.186154
0.753000,-0.183889
0.754000,-0.182272
0.755000,-0.181301
0.756000,-0.181948
0.757000,-0.182595
0.758000,-0.186801
0.759000,-0.195211
0.760000,-0.202651
0.761000,-0.208150
0.762000,-0.210091
0.763000,-0.208797
0.764000,-0.204268
0.765000,-0.197475
0.766000,-0.189388
0.767000,-0.185183
0.768000,-0.182595
0.769000,-0.179684
0.770000,-0.177096
0.771000,-0.175802
0.772000,-0.175479
0.773000,-0.175802
0.774000,-0.177420
0.775000,-0.182919
0.776000,-0.191976
0.777000,-0.199416
0.778000,-0.203298
0.779000,-0.204268
0.780000,-0.202651
0.781000,-0.196505
0.782000,-0.189712
0.783000,-0.182595
0.784000,-0.179361
0.785000,-0.175802
0.786000,-0.173538
0.787000,-0.171274
0.788000,-0.169980
0.789000,-0.170627
0.790000,-0.171597
0.791000,-0.174185
0.792000,-0.182595
0.793000,-0.189065
0.794000,-0.196181
0.795000,-0.198769
0.796000,-0.200710
0.797000,-0.196181
0.798000,-0.190682
0.799000,-0.182272
0.800000,-0.177096
0.801000,-0.173861
0.802000,-0.171274
0.803000,-0.169009
0.804000,-0.166745
0.805000,-0.166098
0.806000,-0.166421
0.807000,-0.168039
0.808000,-0.171597
0.809000,-0.180654
0.810000,-0.187448
0.811000,-0.193594
0.812000,-0.195211
0.813000,-0.194888
0.814000,-0.191976
0.815000,-0.183566
0.816000,-0.176126
0.817000,-0.171597
0.818000,-0.169009
0.819000,-0.166421
0.820000,-0.163510
0.821000,-0.162863
0.822000,-0.162540
0.823000,-0.162863
0.824000,-0.164480
0.825000,-0.170627
0.826000,-0.179361
0.827000,-0.186801
0.828000,-0.191006
0.829000,-0.192947
0.830000,-0.190682
0.831000,-0.184860
0.832000,-0.178390
0.833000,-0.171274
0.834000,-0.167392
0.835000,-0.164480
0.836000,-0.162540
0.837000,-0.160275
0.838000,-0.159305
0.839000,-0.158981
0.840000,-0.160599
0.841000,-0.162863
0.842000,-0.171597
0.843000,-0.178714
0.844000,-0.184536
0.845000,-0.189065
0.846000,-0.190035
0.847000,-0.186154
0.848000,-0.180007
0.849000,-0.172244
0.850000,-0.167392
0.851000,-0.163510
0.852000,-0.160599
0.853000,-0.158658
0.854000,-0.156394
0.855000,-0.156717
0.856000,-0.157040
0.857000,-0.158011
0.858000,-0.161893
0.859000,-0.171274
0.860000,-0.179037
0.861000,-0.184213
0.862000,-0.186801
0.863000,-0.185830
0.864000,-0.181625
0.865000,-0.175155
0.866000,-0.166421
0.867000,-0.162863
0.868000,-0.160275
0.869000,-0.157687
0.870000,-0.155100
0.871000,-0.153482
0.872000,-0.153806
0.873000,-0.154129
0.874000,-0.156070
0.875000,-0.161893
0.876000,-0.170950
0.877000,-0.178390
0.878000,-0.182272
0.879000,-0.184536
0.880000,-0.182919
0.881000,-0.176773
0.882000,-0.169656
0.883000,-0.162863
0.884000,-0.159628
0.885000,-0.156717
0.886000,-0.154453
0.887000,-0.152512
0.888000,-0.151218
0.889000,-0.151218
0.890000,-0.152512
0.891000,-0.155100
0.892000,-0.163187
0.893000,-0.171274
0.894000,-0.177743
0.895000,-0.181625
0.896000,-0.181948
0.897000,-0.179684
0.898000,-0.172244
0.899000,-0.165451
0.900000,-0.159305
0.901000,-0.156394
0.902000,-0.153482
0.903000,-0.151218
0.904000,-0.149600
0.905000,-0.148954
0.906000,-0.149277
0.907000,-0.150571
0.908000,-0.155100
0.909000,-0.163834
0.910000,-0.171597
0.911000,-0.176449
0.912000,-0.179037
0.913000,-0.178714
0.914000,-0.175155
0.915000,-0.168039
0.916000,-0.160275
0.917000,-0.156717
0.918000,-0.153159
0.919000,-0.151218
0.920000,-0.148307
0.921000,-0.147013
0.922000,-0.147013
0.923000,-0.147660
0.924000,-0.149924
0.925000,-0.155423
0.926000,-0.163834
0.927000,-0.171921
0.928000,-0.176126
0.929000,-0.177743
0.930000,-0.176449
0.931000,-0.170303
0.932000,-0.163510
0.933000,-0.156717
0.934000,-0.153482
0.935000,-0.150247
0.936000,-0.148307
0.937000,-0.146366
0.938000,-0.145719
0.939000,-0.145395
0.940000,-0.146689
0.941000,-0.148630
0.942000,-0.157364
0.943000,-0.164804
0.944000,-0.171274
0.945000,-0.174832
0.946000,-0.176773
0.947000,-0.173538
0.948000,-0.167392
0.949000,-0.159305
0.950000,-0.153806
0.951000,-0.150247
0.952000,-0.147660
0.953000,-0.145395
0.954000,-0.143778
0.955000,-0.142807
0.956000,-0.143778
0.957000,-0.145072
0.958000,-0.149600
0.959000,-0.158658
0.960000,-0.165774
0.961000,-0.170950
0.962000,-0.173538
0.963000,-0.172891
0.964000,-0.169333
0.965000,-0.162540
0.966000,-0.155100
0.967000,-0.150247
0.968000,-0.147983
0.969000,-0.145072
0.970000,-0.143131
0.971000,-0.141837
0.972000,-0.141513
0.973000,-0.142807
0.974000,-0.144101
0.975000,-0.149924
0.976000,-0.158981
0.977000,-0.166745
0.978000,-0.170950
0.979000,-0.172891
0.980000,-0.171274
0.981000,-0.165451
0.982000,-0.158334
0.983000,-0.151218
0.984000,-0.148630
0.985000,-0.145395
0.986000,-0.143131
0.987000,-0.140867
0.988000,-0.140220
0.989000,-0.140220
0.990000,-0.141190
0.991000,-0.143778
0.992000,-0.152512
0.993000,-0.160275
0.994000,-0.166421
0.995000,-0.169980
0.996000,-0.171274
0.997000,-0.168362
0.998000,-0.162216
0.999000,-0.154129
1.000000,-0.149600
1.001000,-0.146042
1.002000,-0.142484
1.003000,-0.140867
1.004000,-0.139249
1.005000,-0.138602
1.006000,-0.139249
1.007000,-0.140220
1.008000,-0.144101
1.009000,-0.152835
1.010000,-0.160599
1.011000,-0.166421
1.012000,-0.169656
1.013000,-0.168686
1.014000,-0.165451
1.015000,-0.158011
1.016000,-0.150247
1.017000,-0.146366
1.018000,-0.144101
1.019000,-0.140543
1.020000,-0.138602
1.021000,-0.137632
1.022000,-0.137308
1.023000,-0.137955
1.024000,-0.139573
1.025000,-0.145719
1.026000,-0.154776
1.027000,-0.162216
1.028000,-0.166421
1.029000,-0.168362
1.030000,-0.166745
1.031000,-0.160922
1.032000,-0.154129
1.033000,-0.147013
1.034000,-0.144101
1.035000,-0.140867
1.036000,-0.138602
1.037000,-0.136985
1.038000,-0.135367
1.039000,-0.135691
1.040000,-0.136985
1.041000,-0.139573
1.042000,-0.147983
1.043000,-0.155423
1.044000,-0.162540
1.045000,-0.166421
1.046000,-0.167392
1.047000,-0.164157
1.048000,-0.157687
1.049000,-0.149924
1.050000,-0.145072
1.051000,-0.142484
1.052000,-0.137955
1.053000,-0.137308
1.054000,-0.135044
1.055000,-0.134397
1.056000,-0.135044
1.057000,-0.135691
1.058000,-0.139573
1.059000,-0.148954
1.060000,-0.157364
1.061000,-0.162540
1.062000,-0.165451
1.063000,-0.164804
1.064000,-0.160922
1.065000,-0.153806
1.066000,-0.146689
1.067000,-0.142484
1.068000,-0.139573
1.069000,-0.136661
1.070000,-0.134073
1.071000,-0.133750
1.072000,-0.133427
1.073000,-0.133750
1.074000,-0.135044
1.075000,-0.142160
1.076000,-0.150571
1.077000,-0.158334
1.078000,-0.162863
1.079000,-0.164480
1.080000,-0.162863
1.081000,-0.157364
1.082000,-0.150571
1.083000,-0.143454
1.084000,-0.140543
1.085000,-0.137308
1.086000,-0.135044
1.087000,-0.133103
1.088000,-0.132133
1.089000,-0.132133
1.090000,-0.133103
1.091000,-0.135691
1.092000,-0.144425
1.093000,-0.151865
1.094000,-0.158658
1.095000,-0.162540
1.096000,-0.163834
1.097000,-0.160599
1.098000,-0.154776
1.099000,-0.146042
1.100000,-0.141513
1.101000,-0.138279
1.102000,-0.135367
1.103000,-0.132456
1.104000,-0.132456
1.105000,-0.130839
1.106000,-0.131809
1.107000,-0.132780
1.108000,-0.136661
1.109000,-0.145719
1.110000,-0.153806
1.111000,-0.158981
1.112000,-0.161893
1.113000,-0.161246
1.114000,-0.158011
1.115000,-0.150247
1.116000,-0.142807
1.117000,-0.139249
1.118000,-0.136338
1.119000,-0.133427
1.120000,-0.130839
1.121000,-0.129868
1.122000,-0.129868
1.123000,-0.130515
1.124000,-0.133103
1.125000,-0.137308
1.126000,-0.147013
1.127000,-0.155100
1.128000,-0.158981
1.129000,-0.161246
1.130000,-0.159628
1.131000,-0.154129
1.132000,-0.147013
1.133000,-0.139896
1.134000,-0.136661
1.135000,-0.134073
1.136000,-0.131486
1.137000,-0.129221
1.138000,-0.129221
1.139000,-0.129221
1.140000,-0.129868
1.141000,-0.132456
1.142000,-0.141190
1.143000,-0.148630
1.144000,-0.155423
1.145000,-0.159305
1.146000,-0.160275
1.147000,-0.157364
1.148000,-0.150894
1.149000,-0.143131
1.150000,-0.138279
1.151000,-0.135044
1.152000,-0.132456
1.153000,-0.129545
1.154000,-0.127927
1.155000,-0.127604
1.156000,-0.128574
1.157000,-0.129221
1.158000,-0.133427
1.159000,-0.142807
1.160000,-0.150571
1.161000,-0.155747
1.162000,-0.158658
1.163000,-0.158334
1.164000,-0.154776
1.165000,-0.147013
1.166000,-0.140220
1.167000,-0.136014
1.168000,-0.133103
1.169000,-0.130839
1.170000,-0.127927
1.171000,-0.126633
1.172000,-0.126633
1.173000,-0.127604
1.174000,-0.130192
1.175000,-0.135367
1.176000,-0.143778
1.177000,-0.152188
1.178000,-0.156394
1.179000,-0.158011
1.180000,-0.156717
1.181000,-0.150571
1.182000,-0.144101
1.183000,-0.136985
1.184000,-0.133750
1.185000,-0.131486
1.186000,-0.128574
1.187000,-0.126633
1.188000,-0.125663
1.189000,-0.125986
1.190000,-0.126957
1.191000,-0.130192
1.192000,0.364084
1.193000,0.352115
1.194000,0.341441
1.195000,0.318474
1.196000,0.291625
1.197000,0.190376
1.198000,0.026696
1.199000,-0.153482
1.200000,-0.267347
1.201000,-0.328161
1.202000,-0.360509
1.203000,-0.358891
1.204000,-0.346599
1.205000,-0.313604
1.206000,-0.260877
1.207000,-0.207827
1.208000,-0.094933
1.209000,0.092685
1.210000,0.245691
1.211000,0.316533
1.212000,0.307799
1.213000,0.248926
1.214000,0.146059
1.215000,-0.030237
1.216000,-0.210738
1.217000,-0.294843
1.218000,-0.344658
1.219000,-0.363420
1.220000,-0.355333
1.221000,-0.338836
1.222000,-0.300018
1.223000,-0.245674
1.224000,-0.179684
1.225000,-0.042205
1.226000,0.151558
1.227000,0.283861
1.228000,0.315239
1.229000,0.301976
1.230000,0.225959
1.231000,0.071336
1.232000,-0.087492
1.233000,-0.250849
1.234000,-0.314575
1.235000,-0.354686
1.236000,-0.360832
1.237000,-0.354039
1.238000,-0.323632
1.239000,-0.286109
1.240000,-0.226265
1.241000,-0.147983
1.242000,0.039958
1.243000,0.199110
1.244000,0.308769
1.245000,0.313298
1.246000,0.290008
1.247000,0.187788
1.248000,0.027343
1.249000,-0.155423
1.250000,-0.269611
1.251000,-0.330425
1.252000,-0.359862
1.253000,-0.361479
1.254000,-0.346599
1.255000,-0.315545
1.256000,-0.261848
1.257000,-0.208150
1.258000,-0.097197
1.259000,0.099478
1.260000,0.242780
1.261000,0.314915
1.262000,0.308122
1.263000,0.247632
1.264000,0.145736
1.265000,-0.030237
1.266000,-0.211385
1.267000,-0.295489
1.268000,-0.344335
1.269000,-0.363097
1.270000,-0.357921
1.271000,-0.339806
1.272000,-0.297754
1.273000,-0.245027
1.274000,-0.180978
1.275000,-0.043499
1.276000,0.148971
1.277000,0.282244
1.278000,0.316533
1.279000,0.301006
1.280000,0.225312
1.281000,0.076188
1.282000,-0.086199
1.283000,-0.252467
1.284000,-0.313928
1.285000,-0.355657
1.286000,-0.362773
1.287000,-0.355010
1.288000,-0.323956
1.289000,-0.285785
1.290000,-0.226265
1.291000,-0.148954
1.292000,0.038988
1.293000,0.197816
1.294000,0.306181
1.295000,0.313298
1.296000,0.290654
1.297000,0.185200
1.298000,0.027666
1.299000,-0.156394
1.300000,-0.267994
1.301000,-0.331072
1.302000,-0.362126
1.303000,-0.361156
1.304000,-0.347570
1.305000,-0.313928
1.306000,-0.260554
1.307000,-0.208150
1.308000,-0.095579
1.309000,0.099478
1.310000,0.242780
1.311000,0.312328
1.312000,0.307475
1.313000,0.248602
1.314000,0.146706
1.315000,-0.031531
1.316000,-0.211061
1.317000,-0.295489
1.318000,-0.344011
1.319000,-0.362773
1.320000,-0.355980
1.321000,-0.340453
1.322000,-0.300018
1.323000,-0.245027
1.324000,-0.180007
1.325000,-0.042852
1.326000,0.150588
1.327000,0.286126
1.328000,0.316856
1.329000,0.300359
1.330000,0.225635
1.331000,0.077482
1.332000,-0.085228
1.333000,-0.253437
1.334000,-0.313281
1.335000,-0.354686
1.336000,-0.360185
1.337000,-0.352422
1.338000,-0.324279
1.339000,-0.285462
1.340000,-0.225618
1.341000,-0.147983
1.342000,0.038988
1.343000,0.196199
1.344000,0.308446
1.345000,0.313945
1.346000,0.289037
1.347000,0.188759
1.348000,0.027990
1.349000,-0.155423
1.350000,-0.268964
1.351000,-0.330749
1.352000,-0.361803
1.353000,-0.361479
1.354000,-0.347893
1.355000,-0.314251
1.356000,-0.261848
1.357000,-0.207503
1.358000,-0.096550
1.359000,0.095273
1.360000,0.245367
1.361000,0.314268
1.362000,0.305534
1.363000,0.250867
1.364000,0.147677
1.365000,-0.029913
1.366000,-0.209444
1.367000,-0.292902
1.368000,-0.344011
1.369000,-0.363097
1.370000,-0.357921
1.371000,-0.338836
1.372000,-0.301959
1.373000,-0.246644
1.374000,-0.179684
1.375000,-0.043499
1.376000,0.155440
1.377000,0.281274
1.378000,0.315886
1.379000,0.302623
1.380000,0.225635
1.381000,0.073600
1.382000,-0.085552
1.383000,-0.248262
1.384000,-0.316192
1.385000,-0.353392
1.386000,-0.361803
1.387000,-0.352745
1.388000,-0.323956
1.389000,-0.285138
1.390000,-0.224648
1.391000,-0.147983
1.392000,0.037370
1.393000,0.200404
1.394000,0.308122
1.395000,0.314592
1.396000,0.289037
1.397000,0.188435
1.398000,0.028313
1.399000,-0.155423
1.400000,-0.269288
1.401000,-0.330102
1.402000,-0.361479
1.403000,-0.360509
1.404000,-0.348540
1.405000,-0.315222
1.406000,-0.261848
1.407000,-0.208474
1.408000,-0.096226
1.409000,0.098831
1.410000,0.243750
1.411000,0.315239
1.412000,0.308446
1.413000,0.245367
1.414000,0.146059
1.415000,-0.027325
1.416000,-0.209768
1.417000,-0.294843
1.418000,-0.343688
1.419000,-0.363744
1.420000,-0.357597
1.421000,-0.339806
1.422000,-0.300018
1.423000,-0.245350
1.424000,-0.180007
1.425000,-0.042529
1.426000,0.148324
1.427000,0.280950
1.428000,0.319121
1.429000,0.303594
1.430000,0.227253
1.431000,0.076511
1.432000,-0.086846
1.433000,-0.250202
1.434000,-0.313604
1.435000,-0.352745
1.436000,-0.360509
1.437000,-0.352745
1.438000,-0.324279
1.439000,-0.286109
1.440000,-0.228206
1.441000,-0.147983
1.442000,0.038017
1.443000,0.199433
1.444000,0.308769
1.445000,0.314592
1.446000,0.289037
1.447000,0.190052
1.448000,0.027343
1.449000,-0.155423
1.450000,-0.267347
1.451000,-0.329455
1.452000,-0.362126
1.453000,-0.361479
1.454000,-0.347246
1.455000,-0.315545
1.456000,-0.261848
1.457000,-0.207827
1.458000,-0.096873
1.459000,0.094950
1.460000,0.244073
1.461000,0.313621
1.462000,0.307799
1.463000,0.248602
1.464000,0.147353
1.465000,-0.030237
1.466000,-0.207503
1.467000,-0.297754
1.468000,-0.342070
1.469000,-0.363097
1.470000,-0.357921
1.471000,-0.338836
1.472000,-0.299695
1.473000,-0.245674
1.474000,-0.180331
1.475000,-0.042852
1.476000,0.148971
1.477000,0.284832
1.478000,0.316856
1.479000,0.302300
1.480000,0.225635
1.481000,0.074894
1.482000,-0.085875
1.483000,-0.251173
1.484000,-0.314898
1.485000,-0.356304
1.486000,-0.360185
1.487000,-0.347570
1.488000,-0.321044
1.489000,-0.286109
1.490000,-0.224971
1.491000,-0.147983
1.492000,0.038664
1.493000,0.196199
1.494000,0.304564
1.495000,0.312975
1.496000,0.288714
1.497000,0.187788
1.498000,0.027019
1.499000,-0.155423
1.500000,-0.268317
1.501000,-0.331396
1.502000,-0.362450
1.503000,-0.362126
1.504000,-0.347893
1.505000,-0.314575
1.506000,-0.262171
1.507000,-0.208797
1.508000,-0.097844
1.509000,0.096891
1.510000,0.243103
1.511000,0.315562
1.512000,0.311034
1.513000,0.248602
1.514000,0.146706
1.515000,-0.029913
1.516000,-0.209121
1.517000,-0.292578
1.518000,-0.342717
1.519000,-0.362773
1.520000,-0.358891
1.521000,-0.339483
1.522000,-0.300018
1.523000,-0.245350
1.524000,-0.180978
1.525000,-0.042852
1.526000,0.149941
1.527000,0.278362
1.528000,0.317180
1.529000,0.301329
1.530000,0.226282
1.531000,0.076511
1.532000,-0.084905
1.533000,-0.251173
1.534000,-0.312310
1.535000,-0.355333
1.536000,-0.361803
1.537000,-0.353716
1.538000,-0.326543
1.539000,-0.284815
1.540000,-0.225618
1.541000,-0.150247
1.542000,0.036400
1.543000,0.202021
1.544000,0.307152
1.545000,0.312651
1.546000,0.290654
1.547000,0.186818
1.548000,0.027019
1.549000,-0.155747
1.550000,-0.268964
1.551000,-0.330425
1.552000,-0.361479
1.553000,-0.360185
1.554000,-0.345952
1.555000,-0.316192
1.556000,-0.260554
1.557000,-0.208150
1.558000,-0.097197
1.559000,0.099478
1.560000,0.243750
1.561000,0.312975
1.562000,0.308122
1.563000,0.248279
1.564000,0.146059
1.565000,-0.029590
1.566000,-0.209768
1.567000,-0.295489
1.568000,-0.345305
1.569000,-0.365037
1.570000,-0.358568
1.571000,-0.339483
1.572000,-0.299371
1.573000,-0.245997
1.574000,-0.180331
1.575000,-0.039941
1.576000,0.151558
1.577000,0.282891
1.578000,0.315886
1.579000,0.301976
1.580000,0.225959
1.581000,0.076511
1.582000,-0.086846
1.583000,-0.249555
1.584000,-0.311987
1.585000,-0.354039
1.586000,-0.362126
1.587000,-0.351775
1.588000,-0.323632
1.589000,-0.286109
1.590000,-0.225295
1.591000,-0.148954
1.592000,0.038988
1.593000,0.196846
1.594000,0.307799
1.595000,0.312651
1.596000,0.291301
1.597000,0.187465
1.598000,0.025078
1.599000,-0.155423
1.600000,-0.267994
1.601000,-0.330102
1.602000,-0.363097
1.603000,-0.361156
1.604000,-0.345952
1.605000,-0.314251
1.606000,-0.261524
1.607000,-0.207827
1.608000,-0.097520
1.609000,0.097861
1.610000,0.247308
1.611000,0.313621
1.612000,0.307475
1.613000,0.247632
1.614000,0.145089
1.615000,-0.030884
1.616000,-0.210091
1.617000,-0.294519
1.618000,-0.342394
1.619000,-0.364391
1.620000,-0.354363
1.621000,-0.341747
1.622000,-0.300342
1.623000,-0.241468
1.624000,-0.180978
1.625000,-0.045440
1.626000,0.155440
1.627000,0.283861
1.628000,0.316209
1.629000,0.301329
1.630000,0.225312
1.631000,0.076188
1.632000,-0.086522
1.633000,-0.252143
1.634000,-0.314251
1.635000,-0.354363
1.636000,-0.361479
1.637000,-0.352098
1.638000,-0.324279
1.639000,-0.285785
1.640000,-0.227559
1.641000,-0.147336
1.642000,0.038664
1.643000,0.200080
1.644000,0.307152
1.645000,0.317180
1.646000,0.289361
1.647000,0.188112
1.648000,0.026696
1.649000,-0.155423
1.650000,-0.269611
1.651000,-0.329455
1.652000,-0.360509
1.653000,-0.360509
1.654000,-0.346923
1.655000,-0.314898
1.656000,-0.261524
1.657000,-0.208150
1.658000,-0.097520
1.659000,0.095597
1.660000,0.245367
1.661000,0.312328
1.662000,0.307475
1.663000,0.247308
1.664000,0.146383
1.665000,-0.031207
1.666000,-0.209444
1.667000,-0.294843
1.668000,-0.344982
1.669000,-0.363420
1.670000,-0.357921
1.671000,-0.342070
1.672000,-0.299371
1.673000,-0.242762
1.674000,-0.178714
1.675000,-0.042852
1.676000,0.148000
1.677000,0.284508
1.678000,0.314915
1.679000,0.302947
1.680000,0.226606
1.681000,0.074570
1.682000,-0.085875
1.683000,-0.253437
1.684000,-0.317486
1.685000,-0.354039
1.686000,-0.360509
1.687000,-0.352098
1.688000,-0.322015
1.689000,-0.284815
1.690000,-0.227235
1.691000,-0.371831
1.692000,-0.310046
1.693000,-0.295813
1.694000,-0.288049
1.695000,-0.280609
1.696000,-0.273169
1.697000,-0.264436
1.698000,-0.253437
1.699000,-0.243409
1.700000,-0.236616
1.701000,-0.231764
1.702000,-0.227559
1.703000,-0.224324
1.704000,-0.221736
1.705000,-0.220442
1.706000,-0.219795
1.707000,-0.220119
1.708000,-0.223354
1.709000,-0.230794
1.710000,-0.237263
1.711000,-0.240175
1.712000,-0.241145
1.713000,-0.238557
1.714000,-0.233705
1.715000,-0.224648
1.716000,-0.216561
1.717000,-0.212032
1.718000,-0.208150
1.719000,-0.205562
1.720000,-0.202651
1.721000,-0.200710
1.722000,-0.200710
1.723000,-0.201357
1.724000,-0.201357
1.725000,-0.206856
1.726000,-0.215590
1.727000,-0.222060
1.728000,-0.225295
1.729000,-0.226265
1.730000,-0.223677
1.731000,-0.217208
1.732000,-0.209768
1.733000,-0.202004
1.734000,-0.198122
1.735000,-0.195534
1.736000,-0.192623
1.737000,-0.190682
1.738000,-0.189712
1.739000,-0.189065
1.740000,-0.190035
1.741000,-0.191976
1.742000,-0.199416
1.743000,-0.206856
1.744000,-0.213649
1.745000,-0.216561
1.746000,-0.216884
1.747000,-0.213002
1.748000,-0.206533
1.749000,-0.198446
1.750000,-0.192947
1.751000,-0.189065
1.752000,-0.186154
1.753000,-0.183566
1.754000,-0.182595
1.755000,-0.181301
1.756000,-0.181948
1.757000,-0.182595
1.758000,-0.186477
1.759000,-0.194564
1.760000,-0.202651
1.761000,-0.207180
1.762000,-0.209121
1.763000,-0.208797
1.764000,-0.204915
1.765000,-0.197152
1.766000,-0.189388
1.767000,-0.185183
1.768000,-0.181948
1.769000,-0.179361
1.770000,-0.177420
1.771000,-0.175155
1.772000,-0.174832
1.773000,-0.176126
1.774000,-0.177420
1.775000,-0.183242
1.776000,-0.191329
1.777000,-0.199416
1.778000,-0.202651
1.779000,-0.204592
1.780000,-0.202328
1.781000,-0.196828
1.782000,-0.189065
1.783000,-0.182272
1.784000,-0.178714
1.785000,-0.176126
1.786000,-0.173538
1.787000,-0.171274
1.788000,-0.169980
1.789000,-0.170627
1.790000,-0.170950
1.791000,-0.173861
1.792000,-0.181625
1.793000,-0.189388
1.794000,-0.195211
1.795000,-0.199740
1.796000,-0.200710
1.797000,-0.196505
1.798000,-0.189712
1.799000,-0.182272
1.800000,-0.176773
1.801000,-0.173538
1.802000,-0.170950
1.803000,-0.168039
1.804000,-0.166745
1.805000,-0.166098
1.806000,-0.166421
1.807000,-0.167715
1.808000,-0.171921
1.809000,-0.180331
1.810000,-0.187448
1.811000,-0.193594
1.812000,-0.195211
1.813000,-0.194888
1.814000,-0.191329
1.815000,-0.183566
1.816000,-0.175802
1.817000,-0.171921
1.818000,-0.169009
1.819000,-0.166098
1.820000,-0.164157
1.821000,-0.162863
1.822000,-0.162216
1.823000,-0.163510
1.824000,-0.164804
1.825000,-0.170303
1.826000,-0.179361
1.827000,-0.186477
1.828000,-0.191006
1.829000,-0.192623
1.830000,-0.190359
1.831000,-0.184860
1.832000,-0.178067
1.833000,-0.170627
1.834000,-0.166745
1.835000,-0.164804
1.836000,-0.162216
1.837000,-0.159952
1.838000,-0.159305
1.839000,-0.159305
1.840000,-0.160599
1.841000,-0.163510
1.842000,-0.170627
1.843000,-0.178714
1.844000,-0.184536
1.845000,-0.188741
1.846000,-0.190035
1.847000,-0.186154
1.848000,-0.180331
1.849000,-0.172567
1.850000,-0.166745
1.851000,-0.163834
1.852000,-0.160599
1.853000,-0.158658
1.854000,-0.156717
1.855000,-0.156070
1.856000,-0.156717
1.857000,-0.158011
1.858000,-0.161893
1.859000,-0.170303
1.860000,-0.178067
1.861000,-0.183889
1.862000,-0.186477
1.863000,-0.185830
1.864000,-0.182272
1.865000,-0.174508
1.866000,-0.166745
1.867000,-0.162540
1.868000,-0.159952
1.869000,-0.157364
1.870000,-0.155423
1.871000,-0.153482
1.872000,-0.153482
1.873000,-0.154129
1.874000,-0.156394
1.875000,-0.161569
1.876000,-0.170950
1.877000,-0.177743
1.878000,-0.182919
1.879000,-0.183566
1.880000,-0.181948
1.881000,-0.177420
1.882000,-0.169656
1.883000,-0.162540
1.884000,-0.159952
1.885000,-0.156070
1.886000,-0.153482
1.887000,-0.152188
1.888000,-0.151218
1.889000,-0.151218
1.890000,-0.151865
1.891000,-0.154453
1.892000,-0.163187
1.893000,-0.170627
1.894000,-0.177096
1.895000,-0.180654
1.896000,-0.182272
1.897000,-0.178714
1.898000,-0.173538
1.899000,-0.165774
1.900000,-0.159952
1.901000,-0.155747
1.902000,-0.153159
1.903000,-0.151218
1.904000,-0.149277
1.905000,-0.149277
1.906000,-0.149600
1.907000,-0.150894
1.908000,-0.155100
1.909000,-0.163510
1.910000,-0.171274
1.911000,-0.176773
1.912000,-0.179684
1.913000,-0.178714
1.914000,-0.175802
1.915000,-0.168362
1.916000,-0.160275
1.917000,-0.156394
1.918000,-0.153482
1.919000,-0.150894
1.920000,-0.148307
1.921000,-0.147013
1.922000,-0.147013
1.923000,-0.148307
1.924000,-0.149600
1.925000,-0.155423
1.926000,-0.164157
1.927000,-0.171597
1.928000,-0.175802
1.929000,-0.177743
1.930000,-0.176126
1.931000,-0.170950
1.932000,-0.162863
1.933000,-0.157040
1.934000,-0.153482
1.935000,-0.150894
1.936000,-0.148307
1.937000,-0.146366
1.938000,-0.145072
1.939000,-0.146366
1.940000,-0.146689
1.941000,-0.148630
1.942000,-0.156717
1.943000,-0.165127
1.944000,-0.171597
1.945000,-0.174832
1.946000,-0.176449
1.947000,-0.173214
1.948000,-0.166745
1.949000,-0.158658
1.950000,-0.154129
1.951000,-0.151218
1.952000,-0.147336
1.953000,-0.145719
1.954000,-0.143778
1.955000,-0.143454
1.956000,-0.143454
1.957000,-0.145395
1.958000,-0.149600
1.959000,-0.158011
1.960000,-0.165774
1.961000,-0.171597
1.962000,-0.174185
1.963000,-0.173214
1.964000,-0.170303
1.965000,-0.162863
1.966000,-0.154453
1.967000,-0.150571
1.968000,-0.147983
1.969000,-0.145072
1.970000,-0.143131
1.971000,-0.141513
1.972000,-0.141513
1.973000,-0.142160
1.974000,-0.144748
1.975000,-0.149924
1.976000,-0.158981
1.977000,-0.166745
1.978000,-0.170950
1.979000,-0.172567
1.980000,-0.171274
1.981000,-0.165127
1.982000,-0.158658
1.983000,-0.152188
1.984000,-0.148630
1.985000,-0.145395
1.986000,-0.143454
1.987000,-0.141190
1.988000,-0.140543
1.989000,-0.139896
1.990000,-0.141190
1.991000,-0.143778
1.992000,-0.151865
1.993000,-0.159628
1.994000,-0.166745
1.995000,-0.170303
1.996000,-0.171597
1.997000,-0.167715
1.998000,-0.161246
1.999000,-0.153806
2.000000,-0.148954
2.001000,-0.146042
2.002000,-0.142807
2.003000,-0.140543
2.004000,-0.139573
2.005000,-0.138279
2.006000,-0.139249
2.007000,-0.140220
2.008000,-0.144748
2.009000,-0.153159
2.010000,-0.160922
2.011000,-0.166745
2.012000,-0.169333
2.013000,-0.168686
2.014000,-0.165451
2.015000,-0.158011
2.016000,-0.150247
2.017000,-0.146366
2.018000,-0.143454
2.019000,-0.140867
2.020000,-0.138926
2.021000,-0.136985
2.022000,-0.136985
2.023000,-0.137632
2.024000,-0.139896
2.025000,-0.145395
2.026000,-0.154453
2.027000,-0.161893
2.028000,-0.166421
2.029000,-0.168362
2.030000,-0.167068
2.031000,-0.160922
2.032000,-0.153806
2.033000,-0.147660
2.034000,-0.143778
2.035000,-0.140867
2.036000,-0.138602
2.037000,-0.136661
2.038000,-0.135367
2.039000,-0.135691
2.040000,-0.137308
2.041000,-0.139573
2.042000,-0.147660
2.043000,-0.155747
2.044000,-0.162216
2.045000,-0.166098
2.046000,-0.167068
2.047000,-0.164157
2.048000,-0.157687
2.049000,-0.149924
2.050000,-0.145072
2.051000,-0.141837
2.052000,-0.139573
2.053000,-0.136338
2.054000,-0.135367
2.055000,-0.134397
2.056000,-0.135044
2.057000,-0.135367
2.058000,-0.140543
2.059000,-0.149924
2.060000,-0.157687
2.061000,-0.161893
2.062000,-0.165127
2.063000,-0.164804
2.064000,-0.160922
2.065000,-0.154129
2.066000,-0.146689
2.067000,-0.142484
2.068000,-0.139249
2.069000,-0.136661
2.070000,-0.134720
2.071000,-0.133427
2.072000,-0.132780
2.073000,-0.133750
2.074000,-0.136014
2.075000,-0.141513
2.076000,-0.150894
2.077000,-0.158334
2.078000,-0.162216
2.079000,-0.164804
2.080000,-0.163187
2.081000,-0.157364
2.082000,-0.150571
2.083000,-0.143778
2.084000,-0.140543
2.085000,-0.136661
2.086000,-0.134720
2.087000,-0.133750
2.088000,-0.131809
2.089000,-0.132456
2.090000,-0.133427
2.091000,-0.136014
2.092000,-0.144101
2.093000,-0.152188
2.094000,-0.158658
2.095000,-0.162216
2.096000,-0.163510
2.097000,-0.160275
2.098000,-0.154776
2.099000,-0.146366
2.100000,-0.142160
2.101000,-0.138279
2.102000,-0.135044
2.103000,-0.133103
2.104000,-0.132133
2.105000,-0.130839
2.106000,-0.131809
2.107000,-0.133103
2.108000,-0.136338
2.109000,-0.146366
2.110000,-0.153482
2.111000,-0.158981
2.112000,-0.162216
2.113000,-0.161246
2.114000,-0.157364
2.115000,-0.150571
2.116000,-0.143131
2.117000,-0.138926
2.118000,-0.136338
2.119000,-0.133750
2.120000,-0.131486
2.121000,-0.129868
2.122000,-0.130192
2.123000,-0.131162
2.124000,-0.132780
2.125000,-0.138279
2.126000,-0.147336
2.127000,-0.155100
2.128000,-0.159628
2.129000,-0.161246
2.130000,-0.159952
2.131000,-0.153806
2.132000,-0.147336
2.133000,-0.140220
2.134000,-0.137632
2.135000,-0.133427
2.136000,-0.130515
2.137000,-0.130192
2.138000,-0.128898
2.139000,-0.128574
2.140000,-0.130192
2.141000,-0.132780
2.142000,-0.140867
2.143000,-0.149277
2.144000,-0.155423
2.145000,-0.159628
2.146000,-0.159952
2.147000,-0.158011
2.148000,-0.150894
2.149000,-0.143131
2.150000,-0.138602
2.151000,-0.135367
2.152000,-0.132133
2.153000,-0.130192
2.154000,-0.128574
2.155000,-0.127280
2.156000,-0.128898
2.157000,-0.129545
2.158000,-0.133427
2.159000,-0.142807
2.160000,-0.150247
2.161000,-0.155747
2.162000,-0.158658
2.163000,-0.158011
2.164000,-0.154776
2.165000,-0.147983
2.166000,-0.140220
2.167000,-0.135691
2.168000,-0.132780
2.169000,-0.130515
2.170000,-0.127927
2.171000,-0.126957
2.172000,-0.126633
2.173000,-0.127604
2.174000,-0.129545
2.175000,-0.135691
2.176000,-0.144425
2.177000,-0.151541
2.178000,-0.156070
2.179000,-0.158334
2.180000,-0.157364
2.181000,-0.151218
2.182000,-0.144748
2.183000,-0.136985
2.184000,-0.134073
2.185000,-0.130839
2.186000,-0.128898
2.187000,-0.127280
2.188000,-0.125663
2.189000,-0.126633
2.190000,-0.126957
2.191000,0.346940
2.192000,0.364408
2.193000,0.349204
2.194000,0.338206
2.195000,0.318474
2.196000,0.291625
2.197000,0.187465
2.198000,0.029930
2.199000,-0.153159
2.200000,-0.266053
2.201000,-0.327190
2.202000,-0.360509
2.203000,-0.360509
2.204000,-0.348540
2.205000,-0.315545
2.206000,-0.263142
2.207000,-0.207180
2.208000,-0.096873
2.209000,0.093979
2.210000,0.243427
2.211000,0.314915
2.212000,0.307475
2.213000,0.250867
2.214000,0.146706
2.215000,-0.028619
2.216000,-0.209768
2.217000,-0.296136
2.218000,-0.342070
2.219000,-0.363744
2.220000,-0.358891
2.221000,-0.339159
2.222000,-0.300342
2.223000,-0.245674
2.224000,-0.181301
2.225000,-0.043176
2.226000,0.153823
2.227000,0.283214
2.228000,0.317180
2.229000,0.301653
2.230000,0.226929
2.231000,0.077158
2.232000,-0.085228
2.233000,-0.250526
2.234000,-0.314575
2.235000,-0.354363
2.236000,-0.361803
2.237000,-0.352745
2.238000,-0.323309
2.239000,-0.286756
2.240000,-0.225942
2.241000,-0.150894
2.242000,0.038988
2.243000,0.198463
2.244000,0.304564
2.245000,0.313945
2.246000,0.290978
2.247000,0.187141
2.248000,0.027019
2.249000,-0.155100
2.250000,-0.267670
2.251000,-0.331072
2.252000,-0.363744
2.253000,-0.362126
2.254000,-0.347246
2.255000,-0.315545
2.256000,-0.259907
2.257000,-0.209121
2.258000,-0.099138
2.259000,0.096891
2.260000,0.243750
2.261000,0.313298
2.262000,0.309740
2.263000,0.247955
2.264000,0.146383
2.265000,-0.029913
2.266000,-0.209444
2.267000,-0.294519
2.268000,-0.343688
2.269000,-0.361803
2.270000,-0.356627
2.271000,-0.339159
2.272000,-0.301636
2.273000,-0.245997
2.274000,-0.180654
2.275000,-0.043823
2.276000,0.146383
2.277000,0.282567
2.278000,0.316209
2.279000,0.301006
2.280000,0.226606
2.281000,0.076511
2.282000,-0.085552
2.283000,-0.250849
2.284000,-0.313928
2.285000,-0.354686
2.286000,-0.361803
2.287000,-0.352098
2.288000,-0.323956
2.289000,-0.287726
2.290000,-0.223354
2.291000,-0.150571
2.292000,0.035106
2.293000,0.200080
2.294000,0.305858
2.295000,0.312975
2.296000,0.290654
2.297000,0.189082
2.298000,0.027990
2.299000,-0.155100
2.300000,-0.269935
2.301000,-0.332690
2.302000,-0.361156
2.303000,-0.360509
2.304000,-0.346923
2.305000,-0.314898
2.306000,-0.260554
2.307000,-0.208474
2.308000,-0.098167
2.309000,0.097214
2.310000,0.246014
2.311000,0.312651
2.312000,0.308446
2.313000,0.247632
2.314000,0.147030
2.315000,-0.029266
2.316000,-0.208797
2.317000,-0.294843
2.318000,-0.345305
2.319000,-0.363097
2.320000,-0.356950
2.321000,-0.339483
2.322000,-0.300342
2.323000,-0.246321
2.324000,-0.180654
2.325000,-0.045117
2.326000,0.151558
2.327000,0.281597
2.328000,0.316533
2.329000,0.301976
2.330000,0.226282
2.331000,0.076835
2.332000,-0.085228
2.333000,-0.249879
2.334000,-0.315545
2.335000,-0.354039
2.336000,-0.361803
2.337000,-0.352745
2.338000,-0.322662
2.339000,-0.285462
2.340000,-0.225618
2.341000,-0.148630
2.342000,0.033489
2.343000,0.197169
2.344000,0.302623
2.345000,0.313945
2.346000,0.288714
2.347000,0.187141
2.348000,0.027666
2.349000,-0.154453
2.350000,-0.266700
2.351000,-0.328808
2.352000,-0.361156
2.353000,-0.360509
2.354000,-0.347246
2.355000,-0.314898
2.356000,-0.262171
2.357000,-0.209768
2.358000,-0.096873
2.359000,0.095597
2.360000,0.242780
2.361000,0.312975
2.362000,0.307799
2.363000,0.250867
2.364000,0.148971
2.365000,-0.029266
2.366000,-0.208797
2.367000,-0.294519
2.368000,-0.344335
2.369000,-0.363420
2.370000,-0.356627
2.371000,-0.340130
2.372000,-0.301312
2.373000,-0.245350
2.374000,-0.181301
2.375000,-0.042529
2.376000,0.148971
2.377000,0.281597
2.378000,0.316856
2.379000,0.301653
2.380000,0.227576
2.381000,0.076511
2.382000,-0.084581
2.383000,-0.249555
2.384000,-0.313281
2.385000,-0.354039
2.386000,-0.362126
2.387000,-0.352745
2.388000,-0.322985
2.389000,-0.285462
2.390000,-0.226912
2.391000,-0.148954
2.392000,0.034459
2.393000,0.197816
2.394000,0.305211
2.395000,0.313298
2.396000,0.289361
2.397000,0.188435
2.398000,0.027019
2.399000,-0.153482
2.400000,-0.267347
2.401000,-0.331072
2.402000,-0.362450
2.403000,-0.359862
2.404000,-0.346923
2.405000,-0.314898
2.406000,-0.260877
2.407000,-0.209444
2.408000,-0.099138
2.409000,0.095273
2.410000,0.242780
2.411000,0.311357
2.412000,0.308769
2.413000,0.249249
2.414000,0.147030
2.415000,-0.027325
2.416000,-0.207180
2.417000,-0.295166
2.418000,-0.340777
2.419000,-0.362773
2.420000,-0.358568
2.421000,-0.339483
2.422000,-0.302283
2.423000,-0.244056
2.424000,-0.181301
2.425000,-0.043176
2.426000,0.149294
2.427000,0.285155
2.428000,0.316533
2.429000,0.301976
2.430000,0.226606
2.431000,0.076188
2.432000,-0.083611
2.433000,-0.249232
2.434000,-0.311663
2.435000,-0.353069
2.436000,-0.362773
2.437000,-0.353069
2.438000,-0.323632
2.439000,-0.287403
2.440000,-0.227235
2.441000,-0.148954
2.442000,0.034783
2.443000,0.198139
2.444000,0.305534
2.445000,0.315239
2.446000,0.289684
2.447000,0.187141
2.448000,0.023137
2.449000,-0.156394
2.450000,-0.269611
2.451000,-0.328484
2.452000,-0.361156
2.453000,-0.360185
2.454000,-0.347246
2.455000,-0.313928
2.456000,-0.261848
2.457000,-0.210738
2.458000,-0.100108
2.459000,0.095920
2.460000,0.241162
2.461000,0.314592
2.462000,0.308122
2.463000,0.248926
2.464000,0.149618
2.465000,-0.031207
2.466000,-0.207180
2.467000,-0.298077
2.468000,-0.342717
2.469000,-0.364067
2.470000,-0.357274
2.471000,-0.341100
2.472000,-0.301636
2.473000,-0.245674
2.474000,-0.180978
2.475000,-0.044146
2.476000,0.151882
2.477000,0.283538
2.478000,0.316856
2.479000,0.302623
2.480000,0.226282
2.481000,0.076835
2.482000,-0.083934
2.483000,-0.249555
2.484000,-0.314898
2.485000,-0.355010
2.486000,-0.360509
2.487000,-0.353392
2.488000,-0.323632
2.489000,-0.285138
2.490000,-0.227882
2.491000,-0.147983
2.492000,0.038341
2.493000,0.196522
2.494000,0.306505
2.495000,0.314915
2.496000,0.290654
2.497000,0.186171
2.498000,0.026696
2.499000,-0.151541
2.500000,-0.267347
2.501000,-0.330102
2.502000,-0.361803
2.503000,-0.359862
2.504000,-0.346599
2.505000,-0.313604
2.506000,-0.261848
2.507000,-0.209121
2.508000,-0.102049
2.509000,0.095273
2.510000,0.240839
2.511000,0.312975
2.512000,0.308446
2.513000,0.248926
2.514000,0.148971
2.515000,-0.027972
2.516000,-0.206533
2.517000,-0.297430
2.518000,-0.343364
2.519000,-0.362450
2.520000,-0.357921
2.521000,-0.339806
2.522000,-0.300989
2.523000,-0.246644
2.524000,-0.182272
2.525000,-0.044470
2.526000,0.146706
2.527000,0.282567
2.528000,0.316856
2.529000,0.302300
2.530000,0.226282
2.531000,0.076835
2.532000,-0.084581
2.533000,-0.249555
2.534000,-0.312957
2.535000,-0.355333
2.536000,-0.361803
2.537000,-0.353069
2.538000,-0.324279
2.539000,-0.286109
2.540000,-0.226265
2.541000,-0.149600
2.542000,0.038017
2.543000,0.195875
2.544000,0.306181
2.545000,0.314268
2.546000,0.291948
2.547000,0.187465
2.548000,0.026372
2.549000,-0.158011
2.550000,-0.267347
2.551000,-0.330749
2.552000,-0.361803
2.553000,-0.359538
2.554000,-0.346599
2.555000,-0.316516
2.556000,-0.264112
2.557000,-0.208474
2.558000,-0.097520
2.559000,0.094303
2.560000,0.246014
2.561000,0.315562
2.562000,0.307799
2.563000,0.247632
2.564000,0.149294
2.565000,-0.027325
2.566000,-0.208797
2.567000,-0.299371
2.568000,-0.343041
2.569000,-0.364391
2.570000,-0.357921
2.571000,-0.340453
2.572000,-0.301312
2.573000,-0.245674
2.574000,-0.181301
2.575000,-0.044470
2.576000,0.149618
2.577000,0.280627
2.578000,0.316533
2.579000,0.301976
2.580000,0.225635
2.581000,0.076511
2.582000,-0.084581
2.583000,-0.249555
2.584000,-0.313928
2.585000,-0.354686
2.586000,-0.361803
2.587000,-0.351775
2.588000,-0.324279
2.589000,-0.286432
2.590000,-0.226588
2.591000,-0.148630
2.592000,0.037370
2.593000,0.195875
2.594000,0.303594
2.595000,0.310387
2.596000,0.291625
2.597000,0.190376
2.598000,0.025725
2.599000,-0.151218
2.600000,-0.269935
2.601000,-0.330425
2.602000,-0.362773
2.603000,-0.359862
2.604000,-0.347570
2.605000,-0.314251
2.606000,-0.259583
2.607000,-0.206856
2.608000,-0.100432
2.609000,0.099478
2.610000,0.242456
2.611000,0.313298
2.612000,0.308122
2.613000,0.247632
2.614000,0.148000
2.615000,-0.029266
2.616000,-0.207827
2.617000,-0.296783
2.618000,-0.341100
2.619000,-0.361156
2.620000,-0.358244
2.621000,-0.337542
2.622000,-0.300665
2.623000,-0.243733
2.624000,-0.182595
2.625000,-0.044470
2.626000,0.152529
2.627000,0.280627
2.628000,0.316209
2.629000,0.301329
2.630000,0.226929
2.631000,0.076511
2.632000,-0.084581
2.633000,-0.250526
2.634000,-0.313604
2.635000,-0.356304
2.636000,-0.360832
2.637000,-0.352422
2.638000,-0.323632
2.639000,-0.286432
2.640000,-0.225942
2.641000,-0.150247
2.642000,0.037370
2.643000,0.195875
2.644000,0.304888
2.645000,0.314915
2.646000,0.290331
2.647000,0.188435
2.648000,0.027666
2.649000,-0.154129
2.650000,-0.266376
2.651000,-0.329131
2.652000,-0.364714
2.653000,-0.362126
2.654000,-0.347893
2.655000,-0.313928
2.656000,-0.262171
2.657000,-0.208474
2.658000,-0.097197
2.659000,0.094950
2.660000,0.240839
2.661000,0.314915
2.662000,0.307475
2.663000,0.250543
2.664000,0.147677
2.665000,-0.027002
2.666000,-0.206856
2.667000,-0.296460
2.668000,-0.343688
2.669000,-0.363097
2.670000,-0.357921
2.671000,-0.340777
2.672000,-0.300342
2.673000,-0.247615
2.674000,-0.181625
2.675000,-0.044793
2.676000,0.148000
2.677000,0.281274
2.678000,0.316533
2.679000,0.301329
2.680000,0.226606
2.681000,0.079746
2.682000,-0.084258
2.683000,-0.248585
2.684000,-0.314575
2.685000,-0.355010
2.686000,-0.362773
2.687000,-0.352422
2.688000,-0.323632
2.689000,-0.285785
2.690000,-0.227235
2.691000,-0.311987
2.692000,-0.297107
2.693000,-0.289667
2.694000,-0.283844
2.695000,-0.277698
2.696000,-0.271876
2.697000,-0.262818
2.698000,-0.252467
2.699000,-0.242439
2.700000,-0.235646
2.701000,-0.231441
2.702000,-0.226588
2.703000,-0.223354
2.704000,-0.221089
2.705000,-0.219472
2.706000,-0.219795
2.707000,-0.219148
2.708000,-0.222707
2.709000,-0.230470
2.710000,-0.235969
2.711000,-0.239204
2.712000,-0.240498
2.713000,-0.237910
2.714000,-0.233058
2.715000,-0.224971
2.716000,-0.216237
2.717000,-0.211708
2.718000,-0.208150
2.719000,-0.204915
2.720000,-0.202004
2.721000,-0.200063
2.722000,-0.200063
2.723000,-0.201034
2.724000,-0.201357
2.725000,-0.206533
2.726000,-0.215590
2.727000,-0.222060
2.728000,-0.224971
2.729000,-0.225942
2.730000,-0.223354
2.731000,-0.217208
2.732000,-0.209768
2.733000,-0.202328
2.734000,-0.198769
2.735000,-0.195211
2.736000,-0.192947
2.737000,-0.190359
2.738000,-0.189388
2.739000,-0.189065
2.740000,-0.189712
2.741000,-0.191976
2.742000,-0.199740
2.743000,-0.207180
2.744000,-0.213326
2.745000,-0.216237
2.746000,-0.216561
2.747000,-0.213002
2.748000,-0.205886
2.749000,-0.197799
2.750000,-0.192623
2.751000,-0.189388
2.752000,-0.186477
2.753000,-0.183566
2.754000,-0.181625
2.755000,-0.181625
2.756000,-0.180978
2.757000,-0.182595
2.758000,-0.185830
2.759000,-0.194564
2.760000,-0.202004
2.761000,-0.207503
2.762000,-0.209444
2.763000,-0.208474
2.764000,-0.204592
2.765000,-0.197152
2.766000,-0.189065
2.767000,-0.185183
2.768000,-0.182272
2.769000,-0.179037
2.770000,-0.176773
2.771000,-0.175479
2.772000,-0.175155
2.773000,-0.175155
2.774000,-0.178067
2.775000,-0.182919
2.776000,-0.191006
2.777000,-0.198769
2.778000,-0.202651
2.779000,-0.203945
2.780000,-0.202328
2.781000,-0.196505
2.782000,-0.189712
2.783000,-0.182595
2.784000,-0.179037
2.785000,-0.175802
2.786000,-0.173214
2.787000,-0.170950
2.788000,-0.169980
2.789000,-0.169980
2.790000,-0.170627
2.791000,-0.173538
2.792000,-0.181948
2.793000,-0.189388
2.794000,-0.195211
2.795000,-0.198769
2.796000,-0.199740
2.797000,-0.196828
2.798000,-0.189712
2.799000,-0.181625
2.800000,-0.176773
2.801000,-0.173861
2.802000,-0.170950
2.803000,-0.168362
2.804000,-0.166421
2.805000,-0.165127
2.806000,-0.166421
2.807000,-0.168039
2.808000,-0.170950
2.809000,-0.180331
2.810000,-0.187771
2.811000,-0.193270
2.812000,-0.195534
2.813000,-0.194888
2.814000,-0.191653
2.815000,-0.183566
2.816000,-0.176126
2.817000,-0.171921
2.818000,-0.169009
2.819000,-0.166421
2.820000,-0.163510
2.821000,-0.162863
2.822000,-0.162540
2.823000,-0.163187
2.824000,-0.165127
2.825000,-0.169980
2.826000,-0.179684
2.827000,-0.186154
2.828000,-0.190359
2.829000,-0.192623
2.830000,-0.190682
2.831000,-0.184860
2.832000,-0.178390
2.833000,-0.170627
2.834000,-0.167392
2.835000,-0.164804
2.836000,-0.161893
2.837000,-0.159628
2.838000,-0.159305
2.839000,-0.159305
2.840000,-0.160275
2.841000,-0.162540
2.842000,-0.170627
2.843000,-0.178714
2.844000,-0.184860
2.845000,-0.188418
2.846000,-0.189388
2.847000,-0.186801
2.848000,-0.180331
2.849000,-0.171921
2.850000,-0.167392
2.851000,-0.164157
2.852000,-0.160922
2.853000,-0.158334
2.854000,-0.156717
2.855000,-0.156070
2.856000,-0.157364
2.857000,-0.157687
2.858000,-0.161893
2.859000,-0.170303
2.860000,-0.178390
2.861000,-0.183889
2.862000,-0.187448
2.863000,-0.185830
2.864000,-0.182272
2.865000,-0.175155
2.866000,-0.167068
2.867000,-0.162863
2.868000,-0.159628
2.869000,-0.157364
2.870000,-0.155747
2.871000,-0.153482
2.872000,-0.153159
2.873000,-0.154776
2.874000,-0.156070
2.875000,-0.160922
2.876000,-0.170950
2.877000,-0.177420
2.878000,-0.183242
2.879000,-0.184213
2.880000,-0.182595
2.881000,-0.176449
2.882000,-0.169656
2.883000,-0.162863
2.884000,-0.159305
2.885000,-0.156717
2.886000,-0.154453
2.887000,-0.152188
2.888000,-0.151541
2.889000,-0.151541
2.890000,-0.152512
2.891000,-0.154776
2.892000,-0.162863
2.893000,-0.170950
2.894000,-0.177743
2.895000,-0.180978
2.896000,-0.181948
2.897000,-0.179037
2.898000,-0.172244
2.899000,-0.165127
2.900000,-0.159305
2.901000,-0.156394
2.902000,-0.153482
2.903000,-0.151218
2.904000,-0.149277
2.905000,-0.148630
2.906000,-0.149277
2.907000,-0.150247
2.908000,-0.155423
2.909000,-0.163187
2.910000,-0.170627
2.911000,-0.176449
2.912000,-0.179361
2.913000,-0.178390
2.914000,-0.175479
2.915000,-0.168039
2.916000,-0.160599
2.917000,-0.156394
2.918000,-0.153482
2.919000,-0.150571
2.920000,-0.148307
2.921000,-0.146689
2.922000,-0.147013
2.923000,-0.147983
2.924000,-0.149277
2.925000,-0.155100
2.926000,-0.164157
2.927000,-0.171597
2.928000,-0.175479
2.929000,-0.177420
2.930000,-0.177096
2.931000,-0.170950
2.932000,-0.164157
2.933000,-0.156717
2.934000,-0.153482
2.935000,-0.150894
2.936000,-0.147660
2.937000,-0.146042
2.938000,-0.145072
2.939000,-0.145072
2.940000,-0.145719
2.941000,-0.148954
2.942000,-0.156070
2.943000,-0.164804
2.944000,-0.171274
2.945000,-0.174832
2.946000,-0.176449
2.947000,-0.173538
2.948000,-0.166745
2.949000,-0.159305
2.950000,-0.153806
2.951000,-0.150571
2.952000,-0.147660
2.953000,-0.146042
2.954000,-0.143454
2.955000,-0.143454
2.956000,-0.143454
2.957000,-0.144748
2.958000,-0.149277
2.959000,-0.158334
2.960000,-0.165127
2.961000,-0.170627
2.962000,-0.173861
2.963000,-0.173538
2.964000,-0.169980
2.965000,-0.162540
2.966000,-0.154776
2.967000,-0.150894
2.968000,-0.147983
2.969000,-0.145395
2.970000,-0.142807
2.971000,-0.141837
2.972000,-0.141837
2.973000,-0.142484
2.974000,-0.144425
2.975000,-0.149924
2.976000,-0.158981
2.977000,-0.166421
2.978000,-0.170303
2.979000,-0.172244
2.980000,-0.171597
2.981000,-0.166098
2.982000,-0.158981
2.983000,-0.150894
2.984000,-0.148307
2.985000,-0.145395
2.986000,-0.142484
2.987000,-0.140867
2.988000,-0.140543
2.989000,-0.139896
2.990000,-0.140867
2.991000,-0.143454
2.992000,-0.151541
2.993000,-0.159952
2.994000,-0.166421
2.995000,-0.169656
2.996000,-0.171597
2.997000,-0.168362
2.998000,-0.162216
2.999000,-0.154129
3.000000,-0.148954
3.001000,-0.145719
3.002000,-0.143131
3.003000,-0.140867
3.004000,-0.139249
3.005000,-0.138279
3.006000,-0.138926
3.007000,-0.140220
3.008000,-0.144425
3.009000,-0.153482
3.010000,-0.160922
3.011000,-0.166421
3.012000,-0.169656
3.013000,-0.168362
3.014000,-0.166098
3.015000,-0.157687
3.016000,-0.150571
3.017000,-0.146689
3.018000,-0.143778
3.019000,-0.141837
3.020000,-0.138602
3.021000,-0.136985
3.022000,-0.137308
3.023000,-0.137955
3.024000,-0.139249
3.025000,-0.145719
3.026000,-0.154129
3.027000,-0.161246
3.028000,-0.166421
3.029000,-0.168686
3.030000,-0.166745
3.031000,-0.160599
3.032000,-0.155100
3.033000,-0.147013
3.034000,-0.144425
3.035000,-0.141190
3.036000,-0.138602
3.037000,-0.136661
3.038000,-0.135691
3.039000,-0.135691
3.040000,-0.136985
3.041000,-0.139573
3.042000,-0.147660
3.043000,-0.155747
3.044000,-0.161893
3.045000,-0.166098
3.046000,-0.167392
3.047000,-0.164804
3.048000,-0.157687
3.049000,-0.150571
3.050000,-0.145072
3.051000,-0.141513
3.052000,-0.139249
3.053000,-0.136661
3.054000,-0.135044
3.055000,-0.134397
3.056000,-0.135044
3.057000,-0.136338
3.058000,-0.140220
3.059000,-0.148630
3.060000,-0.156717
3.061000,-0.162216
3.062000,-0.164804
3.063000,-0.164480
3.064000,-0.161569
3.065000,-0.154453
3.066000,-0.146366
3.067000,-0.142484
3.068000,-0.139573
3.069000,-0.136985
3.070000,-0.135044
3.071000,-0.134073
3.072000,-0.133103
3.073000,-0.134073
3.074000,-0.135691
3.075000,-0.141513
3.076000,-0.150571
3.077000,-0.157364
3.078000,-0.162216
3.079000,-0.164804
3.080000,-0.162863
3.081000,-0.156717
3.082000,-0.150894
3.083000,-0.143454
3.084000,-0.140220
3.085000,-0.137955
3.086000,-0.134720
3.087000,-0.133427
3.088000,-0.132133
3.089000,-0.132133
3.090000,-0.133103
3.091000,-0.136014
3.092000,-0.144101
3.093000,-0.151865
3.094000,-0.158334
3.095000,-0.162540
3.096000,-0.163834
3.097000,-0.160275
3.098000,-0.154129
3.099000,-0.147013
3.100000,-0.141190
3.101000,-0.138279
3.102000,-0.135367
3.103000,-0.133103
3.104000,-0.131486
3.105000,-0.130839
3.106000,-0.131486
3.107000,-0.132780
3.108000,-0.136338
3.109000,-0.145395
3.110000,-0.153482
3.111000,-0.158981
3.112000,-0.161893
3.113000,-0.161569
3.114000,-0.157364
3.115000,-0.151218
3.116000,-0.143778
3.117000,-0.139573
3.118000,-0.136338
3.119000,-0.133427
3.120000,-0.131162
3.121000,-0.129868
3.122000,-0.129868
3.123000,-0.130839
3.124000,-0.132133
3.125000,-0.137955
3.126000,-0.147660
3.127000,-0.154776
3.128000,-0.158981
3.129000,-0.161246
3.130000,-0.159952
3.131000,-0.154129
3.132000,-0.147336
3.133000,-0.140220
3.134000,-0.137308
3.135000,-0.134720
3.136000,-0.132133
3.137000,-0.129868
3.138000,-0.129545
3.139000,-0.128574
3.140000,-0.130192
3.141000,-0.131809
3.142000,-0.140867
3.143000,-0.148954
3.144000,-0.155100
3.145000,-0.159305
3.146000,-0.160599
3.147000,-0.157364
3.148000,-0.150894
3.149000,-0.143454
3.150000,-0.137955
3.151000,-0.135044
3.152000,-0.132133
3.153000,-0.130192
3.154000,-0.127927
3.155000,-0.127280
3.156000,-0.128251
3.157000,-0.129221
3.158000,-0.133750
3.159000,-0.142160
3.160000,-0.150247
3.161000,-0.156070
3.162000,-0.158658
3.163000,-0.158334
3.164000,-0.155100
3.165000,-0.147660
3.166000,-0.139896
3.167000,-0.136338
3.168000,-0.132780
3.169000,-0.130192
3.170000,-0.128251
3.171000,-0.126633
3.172000,-0.126957
3.173000,-0.127280
3.174000,-0.129545
3.175000,-0.135367
3.176000,-0.144748
3.177000,-0.151541
3.178000,-0.155747
3.179000,-0.158334
3.180000,-0.156717
3.181000,-0.151541
3.182000,-0.144425
3.183000,-0.137308
3.184000,-0.134073
3.185000,-0.130839
3.186000,-0.128898
3.187000,-0.126310
3.188000,-0.124693
3.189000,-0.126310
3.190000,0.355027
3.191000,0.337559
3.192000,0.364731
3.193000,0.352439
3.194000,0.340470
3.195000,0.318474
3.196000,0.293242
3.197000,0.193934
3.198000,0.032842
3.199000,-0.147983
3.200000,-0.265406
3.201000,-0.325897
3.202000,-0.358891
3.203000,-0.359862
3.204000,-0.346923
3.205000,-0.314898
3.206000,-0.263142
3.207000,-0.209444
3.208000,-0.100755
3.209000,0.095597
3.210000,0.240839
3.211000,0.313945
3.212000,0.308769
3.213000,0.251514
3.214000,0.151558
3.215000,-0.026031
3.216000,-0.205239
3.217000,-0.292902
3.218000,-0.341747
3.219000,-0.362450
3.220000,-0.359538
3.221000,-0.341100
3.222000,-0.301959
3.223000,-0.244056
3.224000,-0.182595
3.225000,-0.049322
3.226000,0.147353
3.227000,0.280627
3.228000,0.316209
3.229000,0.302300
3.230000,0.227576
3.231000,0.082657
3.232000,-0.079406
3.233000,-0.247615
3.234000,-0.312957
3.235000,-0.354039
3.236000,-0.362450
3.237000,-0.351128
3.238000,-0.325897
3.239000,-0.288049
3.240000,-0.226265
3.241000,-0.152188
3.242000,0.036076
3.243000,0.196199
3.244000,0.303270
3.245000,0.313621
3.246000,0.290978
3.247000,0.191993
3.248000,0.030901
3.249000,-0.149924
3.250000,-0.267347
3.251000,-0.327514
3.252000,-0.361803
3.253000,-0.361479
3.254000,-0.349834
3.255000,-0.316192
3.256000,-0.263465
3.257000,-0.209444
3.258000,-0.103666
3.259000,0.093332
3.260000,0.240839
3.261000,0.315239
3.262000,0.308769
3.263000,0.250220
3.264000,0.149294
3.265000,-0.025061
3.266000,-0.206209
3.267000,-0.293225
3.268000,-0.341424
3.269000,-0.363744
3.270000,-0.356304
3.271000,-0.342717
3.272000,-0.302930
3.273000,-0.247291
3.274000,-0.180331
3.275000,-0.047058
3.276000,0.148000
3.277000,0.278362
3.278000,0.316533
3.279000,0.301329
3.280000,0.229517
3.281000,0.079423
3.282000,-0.082964
3.283000,-0.247938
3.284000,-0.313604
3.285000,-0.353716
3.286000,-0.361479
3.287000,-0.352745
3.288000,-0.326220
3.289000,-0.286756
3.290000,-0.227559
3.291000,-0.150571
3.292000,0.034783
3.293000,0.191993
3.294000,0.302623
3.295000,0.314592
3.296000,0.290978
3.297000,0.191993
3.298000,0.028960
3.299000,-0.149924
3.300000,-0.265729
3.301000,-0.327514
3.302000,-0.361803
3.303000,-0.361803
3.304000,-0.347246
3.305000,-0.316192
3.306000,-0.264112
3.307000,-0.210091
3.308000,-0.105284
3.309000,0.094303
3.310000,0.239545
3.311000,0.313621
3.312000,0.308446
3.313000,0.249896
3.314000,0.149941
3.315000,-0.024091
3.316000,-0.206209
3.317000,-0.291608
3.318000,-0.342070
3.319000,-0.363744
3.320000,-0.357597
3.321000,-0.340130
3.322000,-0.302606
3.323000,-0.248909
3.324000,-0.182272
3.325000,-0.044793
3.326000,0.144118
3.327000,0.279980
3.328000,0.315239
3.329000,0.302623
3.330000,0.226929
3.331000,0.082981
3.332000,-0.079082
3.333000,-0.248262
3.334000,-0.311987
3.335000,-0.353069
3.336000,-0.363097
3.337000,-0.355657
3.338000,-0.324926
3.339000,-0.288696
3.340000,-0.228529
3.341000,-0.151218
3.342000,0.034783
3.343000,0.196199
3.344000,0.305858
3.345000,0.313298
3.346000,0.292919
3.347000,0.191670
3.348000,0.031224
3.349000,-0.149600
3.350000,-0.266376
3.351000,-0.329455
3.352000,-0.360832
3.353000,-0.361803
3.354000,-0.348864
3.355000,-0.314898
3.356000,-0.263142
3.357000,-0.210091
3.358000,-0.104313
3.359000,0.093009
3.360000,0.243427
3.361000,0.313298
3.362000,0.308446
3.363000,0.251837
3.364000,0.152205
3.365000,-0.024738
3.366000,-0.205886
3.367000,-0.292902
3.368000,-0.342717
3.369000,-0.363097
3.370000,-0.357921
3.371000,-0.340453
3.372000,-0.302606
3.373000,-0.245997
3.374000,-0.185183
3.375000,-0.049645
3.376000,0.146706
3.377000,0.276745
3.378000,0.315886
3.379000,0.302623
3.380000,0.228223
3.381000,0.082657
3.382000,-0.081346
3.383000,-0.250202
3.384000,-0.313281
3.385000,-0.353716
3.386000,-0.361479
3.387000,-0.352745
3.388000,-0.324926
3.389000,-0.289667
3.390000,-0.231117
3.391000,-0.151865
3.392000,0.026372
3.393000,0.194258
3.394000,0.304241
3.395000,0.314268
3.396000,0.289684
3.397000,0.192964
3.398000,0.031548
3.399000,-0.149600
3.400000,-0.267670
3.401000,-0.329455
3.402000,-0.361479
3.403000,-0.360185
3.404000,-0.348217
3.405000,-0.315545
3.406000,-0.264112
3.407000,-0.210091
3.408000,-0.103990
3.409000,0.088804
3.410000,0.240515
3.411000,0.314268
3.412000,0.308769
3.413000,0.251837
3.414000,0.152205
3.415000,-0.023444
3.416000,-0.205562
3.417000,-0.292902
3.418000,-0.344011
3.419000,-0.361803
3.420000,-0.356950
3.421000,-0.340777
3.422000,-0.304223
3.423000,-0.247938
3.424000,-0.184213
3.425000,-0.051263
3.426000,0.147353
3.427000,0.278686
3.428000,0.312004
3.429000,0.302623
3.430000,0.230164
3.431000,0.082011
3.432000,-0.080052
3.433000,-0.248585
3.434000,-0.313281
3.435000,-0.355010
3.436000,-0.361156
3.437000,-0.352098
3.438000,-0.322338
3.439000,-0.286756
3.440000,-0.228853
3.441000,-0.151541
3.442000,0.031548
3.443000,0.192964
3.444000,0.304241
3.445000,0.313945
3.446000,0.289361
3.447000,0.195875
3.448000,0.035106
3.449000,-0.148630
3.450000,-0.269288
3.451000,-0.328484
3.452000,-0.360185
3.453000,-0.360832
3.454000,-0.347570
3.455000,-0.314575
3.456000,-0.262818
3.457000,-0.210415
3.458000,-0.103343
3.459000,0.091068
3.460000,0.240192
3.461000,0.314592
3.462000,0.308122
3.463000,0.252160
3.464000,0.152205
3.465000,-0.022797
3.466000,-0.205239
3.467000,-0.293225
3.468000,-0.341747
3.469000,-0.364391
3.470000,-0.357597
3.471000,-0.337542
3.472000,-0.301636
3.473000,-0.246968
3.474000,-0.184213
3.475000,-0.046411
3.476000,0.143472
3.477000,0.282567
3.478000,0.316209
3.479000,0.300359
3.480000,0.229840
3.481000,0.080070
3.482000,-0.079406
3.483000,-0.248262
3.484000,-0.311016
3.485000,-0.354039
3.486000,-0.362450
3.487000,-0.355010
3.488000,-0.324603
3.489000,-0.288049
3.490000,-0.229823
3.491000,-0.151541
3.492000,0.030577
3.493000,0.194258
3.494000,0.301976
3.495000,0.316533
3.496000,0.291948
3.497000,0.192964
3.498000,0.029607
3.499000,-0.148307
3.500000,-0.264112
3.501000,-0.328808
3.502000,-0.360509
3.503000,-0.360509
3.504000,-0.347570
3.505000,-0.316516
3.506000,-0.265406
3.507000,-0.210415
3.508000,-0.104960
3.509000,0.092038
3.510000,0.241809
3.511000,0.314268
3.512000,0.308122
3.513000,0.252160
3.514000,0.151558
3.515000,-0.022473
3.516000,-0.204592
3.517000,-0.293225
3.518000,-0.341424
3.519000,-0.364067
3.520000,-0.358568
3.521000,-0.340130
3.522000,-0.302930
3.523000,-0.246644
3.524000,-0.184213
3.525000,-0.047705
3.526000,0.145736
3.527000,0.281274
3.528000,0.316533
3.529000,0.300682
3.530000,0.228223
3.531000,0.082334
3.532000,-0.077788
3.533000,-0.247615
3.534000,-0.312634
3.535000,-0.354039
3.536000,-0.360509
3.537000,-0.354039
3.538000,-0.324926
3.539000,-0.289667
3.540000,-0.229500
3.541000,-0.152188
3.542000,0.028313
3.543000,0.191670
3.544000,0.303917
3.545000,0.313621
3.546000,0.290331
3.547000,0.192964
3.548000,0.029930
3.549000,-0.145719
3.550000,-0.266053
3.551000,-0.328161
3.552000,-0.360832
3.553000,-0.359215
3.554000,-0.347893
3.555000,-0.314898
3.556000,-0.265082
3.557000,-0.210415
3.558000,-0.107225
3.559000,0.088480
3.560000,0.238251
3.561000,0.315562
3.562000,0.308122
3.563000,0.251514
3.564000,0.152529
3.565000,-0.023120
3.566000,-0.204592
3.567000,-0.291284
3.568000,-0.342717
3.569000,-0.362450
3.570000,-0.357597
3.571000,-0.341100
3.572000,-0.303576
3.573000,-0.246968
3.574000,-0.184536
3.575000,-0.049645
3.576000,0.143148
3.577000,0.277715
3.578000,0.316209
3.579000,0.302947
3.580000,0.227576
3.581000,0.084922
3.582000,-0.081346
3.583000,-0.245674
3.584000,-0.312957
3.585000,-0.357274
3.586000,-0.361156
3.587000,-0.352745
3.588000,-0.324279
3.589000,-0.289343
3.590000,-0.227235
3.591000,-0.151541
3.592000,0.030901
3.593000,0.193934
3.594000,0.301653
3.595000,0.313621
3.596000,0.293242
3.597000,0.194258
3.598000,0.032195
3.599000,-0.147336
3.600000,-0.266053
3.601000,-0.329455
3.602000,-0.359862
3.603000,-0.358891
3.604000,-0.350481
3.605000,-0.313604
3.606000,-0.263465
3.607000,-0.211708
3.608000,-0.103666
3.609000,0.092362
3.610000,0.242133
3.611000,0.312975
3.612000,0.309740
3.613000,0.251837
3.614000,0.152529
3.615000,-0.021503
3.616000,-0.204268
3.617000,-0.290961
3.618000,-0.342717
3.619000,-0.363097
3.620000,-0.358568
3.621000,-0.341424
3.622000,-0.302606
3.623000,-0.246968
3.624000,-0.184536
3.625000,-0.050292
3.626000,0.144118
3.627000,0.276098
3.628000,0.315239
3.629000,0.302623
3.630000,0.228870
3.631000,0.084922
3.632000,-0.079406
3.633000,-0.246321
3.634000,-0.308752
3.635000,-0.353069
3.636000,-0.362126
3.637000,-0.353069
3.638000,-0.323309
3.639000,-0.287726
3.640000,-0.227559
3.641000,-0.151865
3.642000,0.026372
3.643000,0.189082
3.644000,0.303917
3.645000,0.312651
3.646000,0.292272
3.647000,0.195552
3.648000,0.032195
3.649000,-0.144425
3.650000,-0.265729
3.651000,-0.328484
3.652000,-0.359538
3.653000,-0.362126
3.654000,-0.351128
3.655000,-0.318133
3.656000,-0.264436
3.657000,-0.207827
3.658000,-0.106578
3.659000,0.093656
3.660000,0.237604
3.661000,0.314592
3.662000,0.309740
3.663000,0.252484
3.664000,0.152205
3.665000,-0.022150
3.666000,-0.202974
3.667000,-0.291608
3.668000,-0.342717
3.669000,-0.363097
3.670000,-0.358244
3.671000,-0.341747
3.672000,-0.302606
3.673000,-0.246968
3.674000,-0.185507
3.675000,-0.049969
3.676000,0.142178
3.677000,0.279009
3.678000,0.315886
3.679000,0.302300
3.680000,0.229517
3.681000,0.084275
3.682000,-0.078112
3.683000,-0.246644
3.684000,-0.310046
3.685000,-0.351775
3.686000,-0.363097
3.687000,-0.353392
3.688000,-0.323956
3.689000,-0.287403
3.690000,-0.318780
3.691000,-0.295813
3.692000,-0.288696
3.693000,-0.284491
3.694000,-0.280933
3.695000,-0.275110
3.696000,-0.270258
3.697000,-0.261848
3.698000,-0.251820
3.699000,-0.241468
3.700000,-0.234675
3.701000,-0.229823
3.702000,-0.226265
3.703000,-0.222707
3.704000,-0.219795
3.705000,-0.218825
3.706000,-0.218825
3.707000,-0.218501
3.708000,-0.221413
3.709000,-0.229176
3.710000,-0.235322
3.711000,-0.238557
3.712000,-0.239851
3.713000,-0.237587
3.714000,-0.232735
3.715000,-0.224001
3.716000,-0.216237
3.717000,-0.211385
3.718000,-0.207503
3.719000,-0.204592
3.720000,-0.202004
3.721000,-0.200063
3.722000,-0.199740
3.723000,-0.200387
3.724000,-0.201034
3.725000,-0.206209
3.726000,-0.214620
3.727000,-0.221089
3.728000,-0.224648
3.729000,-0.225618
3.730000,-0.223030
3.731000,-0.216884
3.732000,-0.209768
3.733000,-0.201681
3.734000,-0.198122
3.735000,-0.195211
3.736000,-0.191976
3.737000,-0.189388
3.738000,-0.189388
3.739000,-0.188094
3.740000,-0.189712
3.741000,-0.191653
3.742000,-0.199416
3.743000,-0.206856
3.744000,-0.213002
3.745000,-0.215914
3.746000,-0.216561
3.747000,-0.212679
3.748000,-0.205886
3.749000,-0.198122
3.750000,-0.191976
3.751000,-0.189065
3.752000,-0.186477
3.753000,-0.183242
3.754000,-0.181625
3.755000,-0.180654
3.756000,-0.181948
3.757000,-0.182595
3.758000,-0.185830
3.759000,-0.194564
3.760000,-0.201681
3.761000,-0.206856
3.762000,-0.209121
3.763000,-0.208474
3.764000,-0.204915
3.765000,-0.197799
3.766000,-0.189065
3.767000,-0.184860
3.768000,-0.181625
3.769000,-0.178714
3.770000,-0.176773
3.771000,-0.175155
3.772000,-0.175155
3.773000,-0.175479
3.774000,-0.176773
3.775000,-0.182595
3.776000,-0.191006
3.777000,-0.198122
3.778000,-0.202328
3.779000,-0.203945
3.780000,-0.202328
3.781000,-0.196505
3.782000,-0.189712
3.783000,-0.181948
3.784000,-0.178714
3.785000,-0.176126
3.786000,-0.172891
3.787000,-0.170950
3.788000,-0.170627
3.789000,-0.169980
3.790000,-0.170627
3.791000,-0.172891
3.792000,-0.181301
3.793000,-0.189065
3.794000,-0.194888
3.795000,-0.198769
3.796000,-0.200063
3.797000,-0.196505
3.798000,-0.190035
3.799000,-0.182919
3.800000,-0.176449
3.801000,-0.173538
3.802000,-0.169980
3.803000,-0.168362
3.804000,-0.166421
3.805000,-0.165451
3.806000,-0.166098
3.807000,-0.167392
3.808000,-0.170627
3.809000,-0.180331
3.810000,-0.187771
3.811000,-0.192947
3.812000,-0.195211
3.813000,-0.194241
3.814000,-0.191006
3.815000,-0.183566
3.816000,-0.176126
3.817000,-0.171921
3.818000,-0.169009
3.819000,-0.166098
3.820000,-0.163834
3.821000,-0.162540
3.822000,-0.162216
3.823000,-0.162863
3.824000,-0.164804
3.825000,-0.169656
3.826000,-0.178714
3.827000,-0.185830
3.828000,-0.190359
3.829000,-0.192623
3.830000,-0.190359
3.831000,-0.185183
3.832000,-0.178390
3.833000,-0.170950
3.834000,-0.167392
3.835000,-0.164480
3.836000,-0.162540
3.837000,-0.160275
3.838000,-0.158334
3.839000,-0.159305
3.840000,-0.159628
3.841000,-0.161246
3.842000,-0.169980
3.843000,-0.178067
3.844000,-0.184536
3.845000,-0.188418
3.846000,-0.189712
3.847000,-0.186154
3.848000,-0.179684
3.849000,-0.172567
3.850000,-0.166745
3.851000,-0.163187
3.852000,-0.160599
3.853000,-0.158981
3.854000,-0.156717
3.855000,-0.156070
3.856000,-0.156394
3.857000,-0.157687
3.858000,-0.161569
3.859000,-0.170950
3.860000,-0.178067
3.861000,-0.183566
3.862000,-0.185507
3.863000,-0.185830
3.864000,-0.182272
3.865000,-0.175155
3.866000,-0.167068
3.867000,-0.162863
3.868000,-0.160275
3.869000,-0.157364
3.870000,-0.155100
3.871000,-0.153806
3.872000,-0.153482
3.873000,-0.154129
3.874000,-0.156070
3.875000,-0.160922
3.876000,-0.170303
3.877000,-0.177743
3.878000,-0.181948
3.879000,-0.183889
3.880000,-0.182272
3.881000,-0.177096
3.882000,-0.170303
3.883000,-0.162863
3.884000,-0.159628
3.885000,-0.156394
3.886000,-0.153806
3.887000,-0.152188
3.888000,-0.150571
3.889000,-0.151541
3.890000,-0.152512
3.891000,-0.153482
3.892000,-0.162863
3.893000,-0.169980
3.894000,-0.177096
3.895000,-0.180654
3.896000,-0.182919
3.897000,-0.178714
3.898000,-0.172891
3.899000,-0.165451
3.900000,-0.160275
3.901000,-0.156717
3.902000,-0.153806
3.903000,-0.151218
3.904000,-0.149277
3.905000,-0.148954
3.906000,-0.149277
3.907000,-0.150571
3.908000,-0.154129
3.909000,-0.163187
3.910000,-0.170303
3.911000,-0.177096
3.912000,-0.180007
3.913000,-0.178714
3.914000,-0.175802
3.915000,-0.168686
3.916000,-0.160599
3.917000,-0.156394
3.918000,-0.153806
3.919000,-0.150894
3.920000,-0.147983
3.921000,-0.147013
3.922000,-0.147013
3.923000,-0.147013
3.924000,-0.149277
3.925000,-0.154776
3.926000,-0.163834
3.927000,-0.170950
3.928000,-0.175479
3.929000,-0.177743
3.930000,-0.176126
3.931000,-0.170950
3.932000,-0.164157
3.933000,-0.156717
3.934000,-0.153159
3.935000,-0.150247
3.936000,-0.147983
3.937000,-0.146042
3.938000,-0.145072
3.939000,-0.145395
3.940000,-0.146366
3.941000,-0.148307
3.942000,-0.156070
3.943000,-0.164804
3.944000,-0.171597
3.945000,-0.174832
3.946000,-0.176449
3.947000,-0.173214
3.948000,-0.167068
3.949000,-0.159628
3.950000,-0.153482
3.951000,-0.150571
3.952000,-0.148307
3.953000,-0.145719
3.954000,-0.143778
3.955000,-0.143131
3.956000,-0.143778
3.957000,-0.145072
3.958000,-0.149277
3.959000,-0.158011
3.960000,-0.164804
3.961000,-0.171274
3.962000,-0.174185
3.963000,-0.173538
3.964000,-0.169656
3.965000,-0.163187
3.966000,-0.155423
3.967000,-0.150894
3.968000,-0.148630
3.969000,-0.145072
3.970000,-0.142807
3.971000,-0.141837
3.972000,-0.141837
3.973000,-0.142160
3.974000,-0.144425
3.975000,-0.148954
3.976000,-0.158334
3.977000,-0.166098
3.978000,-0.170303
3.979000,-0.172567
3.980000,-0.170627
3.981000,-0.165774
3.982000,-0.158981
3.983000,-0.151865
3.984000,-0.148307
3.985000,-0.145719
3.986000,-0.142807
3.987000,-0.140867
3.988000,-0.140220
3.989000,-0.140543
3.990000,-0.141513
3.991000,-0.143454
3.992000,-0.150894
3.993000,-0.158981
3.994000,-0.167068
3.995000,-0.169656
3.996000,-0.171274
3.997000,-0.167715
3.998000,-0.162216
3.999000,-0.155423
4.000000,-0.148954
4.001000,-0.146042
4.002000,-0.142807
4.003000,-0.140543
4.004000,-0.138926
4.005000,-0.138602
4.006000,-0.138926
4.007000,-0.140543
4.008000,-0.143454
4.009000,-0.152835
4.010000,-0.160599
4.011000,-0.166098
4.012000,-0.169333
4.013000,-0.169333
4.014000,-0.165127
4.015000,-0.158981
4.016000,-0.151218
4.017000,-0.146042
4.018000,-0.143454
4.019000,-0.140867
4.020000,-0.138279
4.021000,-0.137632
4.022000,-0.136985
4.023000,-0.137632
4.024000,-0.139249
4.025000,-0.144748
4.026000,-0.154453
4.027000,-0.161569
4.028000,-0.166098
4.029000,-0.168362
4.030000,-0.167068
4.031000,-0.161246
4.032000,-0.154453
4.033000,-0.147336
4.034000,-0.144425
4.035000,-0.141513
4.036000,-0.138602
4.037000,-0.136661
4.038000,-0.135691
4.039000,-0.136014
4.040000,-0.136661
4.041000,-0.139249
4.042000,-0.147013
4.043000,-0.155423
4.044000,-0.162540
4.045000,-0.165774
4.046000,-0.166745
4.047000,-0.164480
4.048000,-0.158334
4.049000,-0.149924
4.050000,-0.145072
4.051000,-0.141837
4.052000,-0.138926
4.053000,-0.136661
4.054000,-0.134720
4.055000,-0.134397
4.056000,-0.134720
4.057000,-0.135044
4.058000,-0.139249
4.059000,-0.148954
4.060000,-0.156717
4.061000,-0.163187
4.062000,-0.165451
4.063000,-0.165127
4.064000,-0.161246
4.065000,-0.155100
4.066000,-0.146689
4.067000,-0.142807
4.068000,-0.139249
4.069000,-0.136985
4.070000,-0.134720
4.071000,-0.133103
4.072000,-0.133103
4.073000,-0.134073
4.074000,-0.135691
4.075000,-0.141513
4.076000,-0.150247
4.077000,-0.157687
4.078000,-0.162540
4.079000,-0.164157
4.080000,-0.163187
4.081000,-0.158011
4.082000,-0.151218
4.083000,-0.143778
4.084000,-0.140220
4.085000,-0.137308
4.086000,-0.135044
4.087000,-0.132780
4.088000,-0.131809
4.089000,-0.131809
4.090000,-0.132456
4.091000,-0.135691
4.092000,-0.143454
4.093000,-0.151541
4.094000,-0.158334
4.095000,-0.162863
4.096000,-0.163187
4.097000,-0.159952
4.098000,-0.154453
4.099000,-0.146689
4.100000,-0.141513
4.101000,-0.138279
4.102000,-0.135691
4.103000,-0.133427
4.104000,-0.131486
4.105000,-0.130515
4.106000,-0.131162
4.107000,-0.132780
4.108000,-0.136338
4.109000,-0.145719
4.110000,-0.153159
4.111000,-0.158981
4.112000,-0.161569
4.113000,-0.161569
4.114000,-0.158658
4.115000,-0.151541
4.116000,-0.142484
4.117000,-0.140220
4.118000,-0.136014
4.119000,-0.133427
4.120000,-0.131162
4.121000,-0.130192
4.122000,-0.129545
4.123000,-0.130839
4.124000,-0.132133
4.125000,-0.137308
4.126000,-0.147013
4.127000,-0.154129
4.128000,-0.158658
4.129000,-0.161246
4.130000,-0.159628
4.131000,-0.154129
4.132000,-0.147983
4.133000,-0.140543
4.134000,-0.136985
4.135000,-0.134397
4.136000,-0.131809
4.137000,-0.129868
4.138000,-0.128574
4.139000,-0.129221
4.140000,-0.129868
4.141000,-0.132133
4.142000,-0.140220
4.143000,-0.147983
4.144000,-0.155100
4.145000,-0.158981
4.146000,-0.160275
4.147000,-0.157687
4.148000,-0.151541
4.149000,-0.143131
4.150000,-0.138279
4.151000,-0.135367
4.152000,-0.132456
4.153000,-0.129868
4.154000,-0.128251
4.155000,-0.127604
4.156000,-0.128251
4.157000,-0.129545
4.158000,-0.133427
4.159000,-0.142160
4.160000,-0.150247
4.161000,-0.155747
4.162000,-0.158334
4.163000,-0.158658
4.164000,-0.155100
4.165000,-0.148307
4.166000,-0.139896
4.167000,-0.136661
4.168000,-0.133750
4.169000,-0.129545
4.170000,-0.128251
4.171000,-0.126633
4.172000,-0.126957
4.173000,-0.127280
4.174000,-0.129545
4.175000,-0.134720
4.176000,-0.144101
4.177000,-0.151541
4.178000,-0.155747
4.179000,-0.158011
4.180000,-0.156717
4.181000,-0.150894
4.182000,-0.145072
4.183000,-0.137308
4.184000,-0.134073
4.185000,-0.131162
4.186000,-0.128898
4.187000,-0.126957
4.188000,-0.125986
4.189000,0.425222
4.190000,0.328502
4.191000,0.336588
4.192000,0.361496
4.193000,0.350498
4.194000,0.341441
4.195000,0.320091
4.196000,0.297124
4.197000,0.201051
4.198000,0.039958
4.199000,-0.140220
4.200000,-0.262171
4.201000,-0.323632
4.202000,-0.360185
4.203000,-0.359538
4.204000,-0.348540
4.205000,-0.317163
4.206000,-0.266053
4.207000,-0.211708
4.208000,-0.115635
4.209000,0.086539
4.210000,0.237280
4.211000,0.316533
4.212000,0.308769
4.213000,0.253778
4.214000,0.158675
4.215000,-0.015680
4.216000,-0.201357
4.217000,-0.292578
4.218000,-0.341424
4.219000,-0.362773
4.220000,-0.356950
4.221000,-0.341424
4.222000,-0.307782
4.223000,-0.247615
4.224000,-0.186154
4.225000,-0.054821
4.226000,0.140560
4.227000,0.275127
4.228000,0.316533
4.229000,0.304888
4.230000,0.229193
4.231000,0.090744
4.232000,-0.073259
4.233000,-0.243409
4.234000,-0.310693
4.235000,-0.353716
4.236000,-0.363744
4.237000,-0.354039
4.238000,-0.324926
4.239000,-0.289343
4.240000,-0.231764
4.241000,-0.154453
4.242000,0.021843
4.243000,0.187465
4.244000,0.300359
4.245000,0.313945
4.246000,0.294536
4.247000,0.197816
4.248000,0.033812
4.249000,-0.142160
4.250000,-0.264759
4.251000,-0.325573
4.252000,-0.361803
4.253000,-0.363097
4.254000,-0.350157
4.255000,-0.317810
4.256000,-0.265729
4.257000,-0.213002
4.258000,-0.114018
4.259000,0.085892
4.260000,0.234693
4.261000,0.315886
4.262000,0.308122
4.263000,0.257660
4.264000,0.154470
4.265000,-0.017621
4.266000,-0.200063
4.267000,-0.290637
4.268000,-0.339806
4.269000,-0.362773
4.270000,-0.359215
4.271000,-0.339806
4.272000,-0.307458
4.273000,-0.246968
4.274000,-0.188094
4.275000,-0.054498
4.276000,0.141207
4.277000,0.274804
4.278000,0.316533
4.279000,0.304241
4.280000,0.231134
4.281000,0.091715
4.282000,-0.072289
4.283000,-0.243086
4.284000,-0.310046
4.285000,-0.353392
4.286000,-0.362450
4.287000,-0.353392
4.288000,-0.326220
4.289000,-0.288049
4.290000,-0.231764
4.291000,-0.155100
4.292000,0.023784
4.293000,0.188759
4.294000,0.301006
4.295000,0.314268
4.296000,0.293242
4.297000,0.198786
4.298000,0.035753
4.299000,-0.141190
4.300000,-0.264759
4.301000,-0.324926
4.302000,-0.360509
4.303000,-0.362126
4.304000,-0.348217
4.305000,-0.317486
4.306000,-0.266053
4.307000,-0.213649
4.308000,-0.113694
4.309000,0.085892
4.310000,0.233722
4.311000,0.315886
4.312000,0.307475
4.313000,0.254425
4.314000,0.156411
4.315000,-0.015033
4.316000,-0.200063
4.317000,-0.289343
4.318000,-0.340453
4.319000,-0.362450
4.320000,-0.356304
4.321000,-0.340777
4.322000,-0.306811
4.323000,-0.247938
4.324000,-0.185507
4.325000,-0.057732
4.326000,0.139913
4.327000,0.273834
4.328000,0.315562
4.329000,0.302947
4.330000,0.230164
4.331000,0.090744
4.332000,-0.071966
4.333000,-0.242439
4.334000,-0.310370
4.335000,-0.352745
4.336000,-0.363420
4.337000,-0.353069
4.338000,-0.325897
4.339000,-0.290314
4.340000,-0.232088
4.341000,-0.155747
4.342000,0.018609
4.343000,0.188759
4.344000,0.300682
4.345000,0.314592
4.346000,0.293566
4.347000,0.198786
4.348000,0.035753
4.349000,-0.140543
4.350000,-0.264436
4.351000,-0.327514
4.352000,-0.360832
4.353000,-0.361803
4.354000,-0.349510
4.355000,-0.316192
4.356000,-0.267023
4.357000,-0.212679
4.358000,-0.112400
4.359000,0.087510
4.360000,0.237280
4.361000,0.315239
4.362000,0.308769
4.363000,0.258307
4.364000,0.156734
4.365000,-0.015357
4.366000,-0.198769
4.367000,-0.289020
4.368000,-0.341747
4.369000,-0.362773
4.370000,-0.358244
4.371000,-0.342394
4.372000,-0.308105
4.373000,-0.249555
4.374000,-0.187771
4.375000,-0.057085
4.376000,0.139913
4.377000,0.274157
4.378000,0.316856
4.379000,0.303270
4.380000,0.229193
4.381000,0.091068
4.382000,-0.072289
4.383000,-0.240822
4.384000,-0.309723
4.385000,-0.352098
4.386000,-0.363097
4.387000,-0.353069
4.388000,-0.326867
4.389000,-0.290314
4.390000,-0.231117
4.391000,-0.155423
4.392000,0.016991
4.393000,0.186818
4.394000,0.299065
4.395000,0.314268
4.396000,0.293889
4.397000,0.199433
4.398000,0.036723
4.399000,-0.139573
4.400000,-0.264759
4.401000,-0.327190
4.402000,-0.362126
4.403000,-0.360509
4.404000,-0.347246
4.405000,-0.315545
4.406000,-0.267670
4.407000,-0.213002
4.408000,-0.117253
4.409000,0.086216
4.410000,0.236957
4.411000,0.316856
4.412000,0.309093
4.413000,0.257013
4.414000,0.156087
4.415000,-0.015680
4.416000,-0.198769
4.417000,-0.288696
4.418000,-0.338836
4.419000,-0.361479
4.420000,-0.357921
4.421000,-0.342717
4.422000,-0.305194
4.423000,-0.249232
4.424000,-0.187448
4.425000,-0.049969
4.426000,0.135385
4.427000,0.273834
4.428000,0.312651
4.429000,0.301329
4.430000,0.228870
4.431000,0.094950
4.432000,-0.072289
4.433000,-0.241792
4.434000,-0.310370
4.435000,-0.351775
4.436000,-0.362450
4.437000,-0.353392
4.438000,-0.326543
4.439000,-0.290637
4.440000,-0.231441
4.441000,-0.155747
4.442000,0.020549
4.443000,0.186171
4.444000,0.300359
4.445000,0.314268
4.446000,0.292919
4.447000,0.200727
4.448000,0.036076
4.449000,-0.140220
4.450000,-0.262171
4.451000,-0.325250
4.452000,-0.360832
4.453000,-0.360185
4.454000,-0.350157
4.455000,-0.317163
4.456000,-0.266700
4.457000,-0.211708
4.458000,-0.119193
4.459000,0.085892
4.460000,0.236310
4.461000,0.314915
4.462000,0.309093
4.463000,0.257660
4.464000,0.158028
4.465000,-0.014386
4.466000,-0.198446
4.467000,-0.288373
4.468000,-0.340130
4.469000,-0.363744
4.470000,-0.359215
4.471000,-0.341424
4.472000,-0.305841
4.473000,-0.249879
4.474000,-0.188418
4.475000,-0.053204
4.476000,0.137972
4.477000,0.273510
4.478000,0.314592
4.479000,0.303917
4.480000,0.232105
4.481000,0.094303
4.482000,-0.070348
4.483000,-0.241145
4.484000,-0.310046
4.485000,-0.353716
4.486000,-0.363097
4.487000,-0.353716
4.488000,-0.326220
4.489000,-0.290314
4.490000,-0.230147
4.491000,-0.155100
4.492000,0.017315
4.493000,0.186171
4.494000,0.299712
4.495000,0.313945
4.496000,0.294213
4.497000,0.201374
4.498000,0.035753
4.499000,-0.138602
4.500000,-0.263142
4.501000,-0.325250
4.502000,-0.360509
4.503000,-0.361479
4.504000,-0.348217
4.505000,-0.316839
4.506000,-0.268317
4.507000,-0.211708
4.508000,-0.118870
4.509000,0.084922
4.510000,0.230487
4.511000,0.313621
4.512000,0.308769
4.513000,0.256366
4.514000,0.158028
4.515000,-0.015680
4.516000,-0.198122
4.517000,-0.287079
4.518000,-0.340130
4.519000,-0.361479
4.520000,-0.358244
4.521000,-0.341100
4.522000,-0.304870
4.523000,-0.247615
4.524000,-0.187771
4.525000,-0.053851
4.526000,0.138296
4.527000,0.272863
4.528000,0.313298
4.529000,0.302300
4.530000,0.229840
4.531000,0.093332
4.532000,-0.070995
4.533000,-0.239528
4.534000,-0.309076
4.535000,-0.352098
4.536000,-0.363097
4.537000,-0.354686
4.538000,-0.327837
4.539000,-0.290314
4.540000,-0.232088
4.541000,-0.155747
4.542000,0.018285
4.543000,0.183583
4.544000,0.301653
4.545000,0.315562
4.546000,0.293566
4.547000,0.200727
4.548000,0.037370
4.549000,-0.138602
4.550000,-0.265082
4.551000,-0.326543
4.552000,-0.359538
4.553000,-0.361479
4.554000,-0.348540
4.555000,-0.316839
4.556000,-0.268964
4.557000,-0.213649
4.558000,-0.118870
4.559000,0.079099
4.560000,0.233399
4.561000,0.312328
4.562000,0.310710
4.563000,0.255719
4.564000,0.156734
4.565000,-0.013416
4.566000,-0.197475
4.567000,-0.288373
4.568000,-0.342394
4.569000,-0.365361
4.570000,-0.358244
4.571000,-0.342070
4.572000,-0.306164
4.573000,-0.249232
4.574000,-0.187448
4.575000,-0.054498
4.576000,0.137972
4.577000,0.273187
4.578000,0.314268
4.579000,0.305534
4.580000,0.233399
4.581000,0.092685
4.582000,-0.070995
4.583000,-0.239528
4.584000,-0.309723
4.585000,-0.351128
4.586000,-0.362773
4.587000,-0.352098
4.588000,-0.327514
4.589000,-0.289990
4.590000,-0.231764
4.591000,-0.156394
4.592000,0.020549
4.593000,0.185200
4.594000,0.299712
4.595000,0.315562
4.596000,0.295507
4.597000,0.201374
4.598000,0.037694
4.599000,-0.138926
4.600000,-0.263465
4.601000,-0.326867
4.602000,-0.359215
4.603000,-0.362450
4.604000,-0.349834
4.605000,-0.318780
4.606000,-0.268964
4.607000,-0.213649
4.608000,-0.116929
4.609000,0.084598
4.610000,0.232105
4.611000,0.314915
4.612000,0.309093
4.613000,0.256366
4.614000,0.158352
4.615000,-0.013092
4.616000,-0.197475
4.617000,-0.288696
4.618000,-0.337865
4.619000,-0.362126
4.620000,-0.360509
4.621000,-0.341424
4.622000,-0.306488
4.623000,-0.249879
4.624000,-0.189065
4.625000,-0.059350
4.626000,0.136031
4.627000,0.272540
4.628000,0.316533
4.629000,0.301006
4.630000,0.232428
4.631000,0.094626
4.632000,-0.070672
4.633000,-0.238881
4.634000,-0.310693
4.635000,-0.354363
4.636000,-0.363744
4.637000,-0.354686
4.638000,-0.327190
4.639000,-0.289990
4.640000,-0.233058
4.641000,-0.157040
4.642000,0.012786
4.643000,0.186171
4.644000,0.300359
4.645000,0.314592
4.646000,0.293242
4.647000,0.201698
4.648000,0.037047
4.649000,-0.137632
4.650000,-0.265082
4.651000,-0.326543
4.652000,-0.359862
4.653000,-0.360509
4.654000,-0.348864
4.655000,-0.318780
4.656000,-0.268641
4.657000,-0.213973
4.658000,-0.117900
4.659000,0.081040
4.660000,0.233399
4.661000,0.314268
4.662000,0.311034
4.663000,0.255395
4.664000,0.156411
4.665000,-0.010504
4.666000,-0.195858
4.667000,-0.285785
4.668000,-0.339159
4.669000,-0.362126
4.670000,-0.359215
4.671000,-0.341424
4.672000,-0.306488
4.673000,-0.249232
4.674000,-0.188741
4.675000,-0.052880
4.676000,0.137325
4.677000,0.273187
4.678000,0.315886
4.679000,0.303270
4.680000,0.232105
4.681000,0.094626
4.682000,-0.073259
4.683000,-0.237587
4.684000,-0.305517
4.685000,-0.354686
4.686000,-0.364391
4.687000,-0.352422
4.688000,-0.327190
4.689000,-0.329455
4.690000,-0.298724
4.691000,-0.286109
4.692000,-0.282227
4.693000,-0.280286
4.694000,-0.278022
4.695000,-0.273816
4.696000,-0.268964
4.697000,-0.261201
4.698000,-0.250849
4.699000,-0.241792
4.700000,-0.234028
4.701000,-0.229500
4.702000,-0.224971
4.703000,-0.221736
4.704000,-0.219148
4.705000,-0.217531
4.706000,-0.217208
4.707000,-0.217855
4.708000,-0.219795
4.709000,-0.227882
4.710000,-0.234028
4.711000,-0.238557
4.712000,-0.239528
4.713000,-0.237263
4.714000,-0.232088
4.715000,-0.225295
4.716000,-0.216561
4.717000,-0.211061
4.718000,-0.207503
4.719000,-0.204268
4.720000,-0.201034
4.721000,-0.199740
4.722000,-0.199093
4.723000,-0.199740
4.724000,-0.201034
4.725000,-0.205886
4.726000,-0.214296
4.727000,-0.220119
4.728000,-0.224001
4.729000,-0.225295
4.730000,-0.222707
4.731000,-0.217208
4.732000,-0.209444
4.733000,-0.201681
4.734000,-0.197475
4.735000,-0.194888
4.736000,-0.191976
4.737000,-0.189712
4.738000,-0.189065
4.739000,-0.188418
4.740000,-0.189065
4.741000,-0.191329
4.742000,-0.198446
4.743000,-0.205886
4.744000,-0.212679
4.745000,-0.214943
4.746000,-0.215590
4.747000,-0.213326
4.748000,-0.205886
4.749000,-0.198769
4.750000,-0.192300
4.751000,-0.189065
4.752000,-0.185830
4.753000,-0.183889
4.754000,-0.181948
4.755000,-0.180654
4.756000,-0.180978
4.757000,-0.181948
4.758000,-0.184860
4.759000,-0.193594
4.760000,-0.201357
4.761000,-0.206856
4.762000,-0.209121
4.763000,-0.208797
4.764000,-0.204915
4.765000,-0.196828
4.766000,-0.189065
4.767000,-0.185183
4.768000,-0.182272
4.769000,-0.178714
4.770000,-0.176773
4.771000,-0.175155
4.772000,-0.174508
4.773000,-0.175155
4.774000,-0.176449
4.775000,-0.181948
4.776000,-0.190359
4.777000,-0.197475
4.778000,-0.201681
4.779000,-0.204268
4.780000,-0.202651
4.781000,-0.196828
4.782000,-0.189388
4.783000,-0.181948
4.784000,-0.178714
4.785000,-0.175802
4.786000,-0.173538
4.787000,-0.169980
4.788000,-0.170303
4.789000,-0.169656
4.790000,-0.170627
4.791000,-0.173214
4.792000,-0.180331
4.793000,-0.188094
4.794000,-0.194888
4.795000,-0.198769
4.796000,-0.199416
4.797000,-0.196828
4.798000,-0.190035
4.799000,-0.182595
4.800000,-0.176773
4.801000,-0.173214
4.802000,-0.170627
4.803000,-0.168039
4.804000,-0.166421
4.805000,-0.165451
4.806000,-0.165774
4.807000,-0.167392
4.808000,-0.169980
4.809000,-0.180007
4.810000,-0.186801
4.811000,-0.192623
4.812000,-0.195534
4.813000,-0.194888
4.814000,-0.191653
4.815000,-0.184536
4.816000,-0.176449
4.817000,-0.172244
4.818000,-0.169333
4.819000,-0.165774
4.820000,-0.163834
4.821000,-0.162863
4.822000,-0.162216
4.823000,-0.162540
4.824000,-0.163187
4.825000,-0.169333
4.826000,-0.178390
4.827000,-0.185507
4.828000,-0.189712
4.829000,-0.192300
4.830000,-0.190682
4.831000,-0.184860
4.832000,-0.178714
4.833000,-0.171274
4.834000,-0.167715
4.835000,-0.164804
4.836000,-0.162540
4.837000,-0.160275
4.838000,-0.158334
4.839000,-0.159305
4.840000,-0.159628
4.841000,-0.161569
4.842000,-0.169333
4.843000,-0.178067
4.844000,-0.184213
4.845000,-0.188094
4.846000,-0.189712
4.847000,-0.186801
4.848000,-0.180331
4.849000,-0.172567
4.850000,-0.167068
4.851000,-0.163834
4.852000,-0.160599
4.853000,-0.158658
4.854000,-0.157040
4.855000,-0.155747
4.856000,-0.156717
4.857000,-0.157364
4.858000,-0.160922
4.859000,-0.169656
4.860000,-0.177420
4.861000,-0.183242
4.862000,-0.185830
4.863000,-0.185830
4.864000,-0.182272
4.865000,-0.175479
4.866000,-0.167392
4.867000,-0.163510
4.868000,-0.159952
4.869000,-0.157040
4.870000,-0.154453
4.871000,-0.153806
4.872000,-0.153482
4.873000,-0.153806
4.874000,-0.155747
4.875000,-0.160599
4.876000,-0.169333
4.877000,-0.177096
4.878000,-0.181625
4.879000,-0.183889
4.880000,-0.182919
4.881000,-0.177743
4.882000,-0.171597
4.883000,-0.163187
4.884000,-0.159628
4.885000,-0.157040
4.886000,-0.154776
4.887000,-0.152188
4.888000,-0.151218
4.889000,-0.151218
4.890000,-0.151541
4.891000,-0.154453
4.892000,-0.161569
4.893000,-0.169656
4.894000,-0.177096
4.895000,-0.180654
4.896000,-0.182272
4.897000,-0.179361
4.898000,-0.172567
4.899000,-0.165774
4.900000,-0.158981
4.901000,-0.156394
4.902000,-0.153482
4.903000,-0.151218
4.904000,-0.148954
4.905000,-0.148630
4.906000,-0.149600
4.907000,-0.150247
4.908000,-0.153482
4.909000,-0.162863
4.910000,-0.170303
4.911000,-0.176449
4.912000,-0.179361
4.913000,-0.179361
4.914000,-0.175802
4.915000,-0.168686
4.916000,-0.160599
4.917000,-0.156717
4.918000,-0.153482
4.919000,-0.150894
4.920000,-0.147983
4.921000,-0.146366
4.922000,-0.146366
4.923000,-0.147660
4.924000,-0.149277
4.925000,-0.154453
4.926000,-0.163510
4.927000,-0.170950
4.928000,-0.175155
4.929000,-0.177743
4.930000,-0.176449
4.931000,-0.170627
4.932000,-0.164804
4.933000,-0.156717
4.934000,-0.153482
4.935000,-0.150247
4.936000,-0.147660
4.937000,-0.146042
4.938000,-0.144748
4.939000,-0.144101
4.940000,-0.146042
4.941000,-0.148954
4.942000,-0.156394
4.943000,-0.163187
4.944000,-0.170950
4.945000,-0.174508
4.946000,-0.176126
4.947000,-0.173538
4.948000,-0.167068
4.949000,-0.159628
4.950000,-0.153806
4.951000,-0.150571
4.952000,-0.147983
4.953000,-0.145395
4.954000,-0.143778
4.955000,-0.143454
4.956000,-0.143778
4.957000,-0.144425
4.958000,-0.148307
4.959000,-0.157040
4.960000,-0.164804
4.961000,-0.170627
4.962000,-0.173538
4.963000,-0.173214
4.964000,-0.169980
4.965000,-0.163187
4.966000,-0.155423
4.967000,-0.151218
4.968000,-0.148307
4.969000,-0.145395
4.970000,-0.143454
4.971000,-0.141837
4.972000,-0.141513
4.973000,-0.143131
4.974000,-0.143454
4.975000,-0.148954
4.976000,-0.158011
4.977000,-0.165127
4.978000,-0.170303
4.979000,-0.172244
4.980000,-0.170627
4.981000,-0.165774
4.982000,-0.159305
4.983000,-0.151865
4.984000,-0.148630
4.985000,-0.145719
4.986000,-0.142807
4.987000,-0.140543
4.988000,-0.140220
4.989000,-0.139896
4.990000,-0.141190
4.991000,-0.143131
4.992000,-0.150894
4.993000,-0.159952
4.994000,-0.165451
4.995000,-0.170303
4.996000,-0.171597
4.997000,-0.168686
4.998000,-0.162216
4.999000,-0.154776
