LabVIEW Measurement,
Writer_Version,2
Reader_Version,2
Separator,Comma
Decimal_Separator,.
Multi_Headings,No
X_Columns,One
Time_Pref,Absolute
Operator,localuser
Date,2024/07/15
Time,10:20:33.5730848999997036737
***End_of_Header***,
,
Channels,1,
Samples,5000,
Date,2024/07/15,
Time,10:20:33.5730848999997036737,
Y_Unit_Label,Volts,
X_Dimension,Time,
X0,0.0000000000000000E+0,
Delta_X,0.001000,
***End_of_Header***,,
X_Value,Voltage,Comment
0.000000,-0.182272
0.001000,-0.174832
0.002000,-0.170303
0.003000,-0.167068
0.004000,-0.164157
0.005000,-0.163187
0.006000,-0.160922
0.007000,-0.161569
0.008000,-0.161893
0.009000,-0.162863
0.010000,-0.168362
0.011000,-0.178390
0.012000,-0.184860
0.013000,-0.189388
0.014000,-0.191329
0.015000,-0.189388
0.016000,-0.184213
0.017000,-0.177096
0.018000,-0.169980
0.019000,-0.166421
0.020000,-0.163834
0.021000,-0.161246
0.022000,-0.158658
0.023000,-0.158334
0.024000,-0.158334
0.025000,-0.159305
0.026000,-0.161569
0.027000,-0.169656
0.028000,-0.177096
0.029000,-0.183566
0.030000,-0.187448
0.031000,-0.188418
0.032000,-0.185183
0.033000,-0.179037
0.034000,-0.171921
0.035000,-0.166421
0.036000,-0.163187
0.037000,-0.159952
0.038000,-0.157364
0.039000,-0.155423
0.040000,-0.155100
0.041000,-0.155747
0.042000,-0.156070
0.043000,-0.159628
0.044000,-0.168686
0.045000,-0.177096
0.046000,-0.182595
0.047000,-0.185183
0.048000,-0.184860
0.049000,-0.181301
0.050000,-0.174185
0.051000,-0.166421
0.052000,-0.162216
0.053000,-0.159952
0.054000,-0.156717
0.055000,-0.154129
0.056000,-0.152512
0.057000,-0.152512
0.058000,-0.153482
0.059000,-0.155100
0.060000,-0.160275
0.061000,-0.169980
0.062000,-0.175802
0.063000,-0.182272
0.064000,-0.183566
0.065000,-0.181301
0.066000,-0.176449
0.067000,-0.169333
0.068000,-0.162216
0.069000,-0.158981
0.070000,-0.155747
0.071000,-0.153159
0.072000,-0.151218
0.073000,-0.150894
0.074000,-0.150247
0.075000,-0.151541
0.076000,-0.153806
0.077000,-0.162216
0.078000,-0.170303
0.079000,-0.176126
0.080000,-0.179684
0.081000,-0.181625
0.082000,-0.178067
0.083000,-0.171597
0.084000,-0.164480
0.085000,-0.158658
0.086000,-0.156070
0.087000,-0.152835
0.088000,-0.150571
0.089000,-0.148954
0.090000,-0.147983
0.091000,-0.148954
0.092000,-0.149924
0.093000,-0.153806
0.094000,-0.163834
0.095000,-0.170303
0.096000,-0.176449
0.097000,-0.178390
0.098000,-0.179037
0.099000,-0.174832
0.100000,-0.167392
0.101000,-0.160599
0.102000,-0.156394
0.103000,-0.153159
0.104000,-0.150247
0.105000,-0.147983
0.106000,-0.146366
0.107000,-0.146366
0.108000,-0.147013
0.109000,-0.148630
0.110000,-0.154453
0.111000,-0.164157
0.112000,-0.170303
0.113000,-0.175479
0.114000,-0.177420
0.115000,-0.175479
0.116000,0.334001
0.117000,0.171291
0.118000,0.008904
0.119000,-0.056762
0.120000,-0.107225
0.121000,-0.137632
0.122000,-0.150571
0.123000,-0.135691
0.124000,-0.100755
0.125000,-0.042205
0.126000,0.036400
0.127000,0.213666
0.128000,0.341117
0.129000,0.339500
0.130000,0.321061
0.131000,0.292595
0.132000,0.189082
0.133000,0.028313
0.134000,-0.152512
0.135000,-0.267023
0.136000,-0.329455
0.137000,-0.362126
0.138000,-0.358568
0.139000,-0.344335
0.140000,-0.312634
0.141000,-0.260554
0.142000,-0.207827
0.143000,-0.097520
0.144000,0.099478
0.145000,0.248926
0.146000,0.317503
0.147000,0.308769
0.148000,0.247955
0.149000,0.145412
0.150000,-0.027649
0.151000,-0.210738
0.152000,-0.295813
0.153000,-0.340453
0.154000,-0.361479
0.155000,-0.355333
0.156000,-0.336895
0.157000,-0.299695
0.158000,-0.244056
0.159000,-0.181301
0.160000,-0.041235
0.161000,0.152529
0.162000,0.283538
0.163000,0.316856
0.164000,0.302623
0.165000,0.227900
0.166000,0.076188
0.167000,-0.084905
0.168000,-0.253437
0.169000,-0.312634
0.170000,-0.356304
0.171000,-0.361479
0.172000,-0.350804
0.173000,-0.321044
0.174000,-0.282550
0.175000,-0.224324
0.176000,-0.147013
0.177000,0.038341
0.178000,0.201698
0.179000,0.308769
0.180000,0.312004
0.181000,0.291625
0.182000,0.188435
0.183000,0.025402
0.184000,-0.156070
0.185000,-0.268317
0.186000,-0.329778
0.187000,-0.361803
0.188000,-0.360185
0.189000,-0.343688
0.190000,-0.312957
0.191000,-0.261524
0.192000,-0.205239
0.193000,-0.096226
0.194000,0.101743
0.195000,0.247308
0.196000,0.314268
0.197000,0.309093
0.198000,0.247632
0.199000,0.145412
0.200000,-0.032501
0.201000,-0.213002
0.202000,-0.297107
0.203000,-0.345305
0.204000,-0.362773
0.205000,-0.355980
0.206000,-0.338189
0.207000,-0.298724
0.208000,-0.244056
0.209000,-0.176126
0.210000,-0.039294
0.211000,0.153499
0.212000,0.287096
0.213000,0.317827
0.214000,0.301006
0.215000,0.226929
0.216000,0.072306
0.217000,-0.085875
0.218000,-0.254731
0.219000,-0.313281
0.220000,-0.356627
0.221000,-0.362126
0.222000,-0.350804
0.223000,-0.320397
0.224000,-0.283521
0.225000,-0.223677
0.226000,-0.146042
0.227000,0.042870
0.228000,0.200404
0.229000,0.308446
0.230000,0.313621
0.231000,0.288714
0.232000,0.185524
0.233000,0.024108
0.234000,-0.157687
0.235000,-0.270258
0.236000,-0.331072
0.237000,-0.362126
0.238000,-0.360185
0.239000,-0.346276
0.240000,-0.312634
0.241000,-0.259583
0.242000,-0.205886
0.243000,-0.091374
0.244000,0.102390
0.245000,0.248279
0.246000,0.314915
0.247000,0.308446
0.248000,0.249573
0.249000,0.142825
0.250000,-0.034118
0.251000,-0.213002
0.252000,-0.296783
0.253000,-0.346599
0.254000,-0.364714
0.255000,-0.356627
0.256000,-0.337865
0.257000,-0.297754
0.258000,-0.243733
0.259000,-0.178390
0.260000,-0.037353
0.261000,0.156734
0.262000,0.285479
0.263000,0.317503
0.264000,0.302623
0.265000,0.226282
0.266000,0.072630
0.267000,-0.089757
0.268000,-0.252467
0.269000,-0.314898
0.270000,-0.354686
0.271000,-0.358891
0.272000,-0.351775
0.273000,-0.320074
0.274000,-0.282874
0.275000,-0.222707
0.276000,-0.145072
0.277000,0.046428
0.278000,0.202992
0.279000,0.308769
0.280000,0.311681
0.281000,0.288390
0.282000,0.185200
0.283000,0.023784
0.284000,-0.160275
0.285000,-0.271229
0.286000,-0.331396
0.287000,-0.362450
0.288000,-0.360509
0.289000,-0.345305
0.290000,-0.311016
0.291000,-0.260230
0.292000,-0.202974
0.293000,-0.089110
0.294000,0.104654
0.295000,0.249896
0.296000,0.315562
0.297000,0.307475
0.298000,0.247955
0.299000,0.143472
0.300000,-0.035736
0.301000,-0.212679
0.302000,-0.295489
0.303000,-0.344658
0.304000,-0.362450
0.305000,-0.355010
0.306000,-0.336571
0.307000,-0.299048
0.308000,-0.243086
0.309000,-0.174185
0.310000,-0.034442
0.311000,0.158352
0.312000,0.287743
0.313000,0.316856
0.314000,0.301006
0.315000,0.225312
0.316000,0.071336
0.317000,-0.089433
0.318000,-0.252143
0.319000,-0.315545
0.320000,-0.354039
0.321000,-0.361479
0.322000,-0.350481
0.323000,-0.319750
0.324000,-0.280933
0.325000,-0.222707
0.326000,-0.144101
0.327000,0.049339
0.328000,0.203639
0.329000,0.310063
0.330000,0.311357
0.331000,0.286126
0.332000,0.182612
0.333000,0.022814
0.334000,-0.161569
0.335000,-0.270258
0.336000,-0.332043
0.337000,-0.360832
0.338000,-0.358891
0.339000,-0.344982
0.340000,-0.311987
0.341000,-0.257966
0.342000,-0.202974
0.343000,-0.088139
0.344000,0.105624
0.345000,0.251514
0.346000,0.315239
0.347000,0.306505
0.348000,0.246014
0.349000,0.140884
0.350000,-0.035412
0.351000,-0.213002
0.352000,-0.296136
0.353000,-0.344335
0.354000,-0.362450
0.355000,-0.356627
0.356000,-0.337542
0.357000,-0.295813
0.358000,-0.241145
0.359000,-0.175155
0.360000,-0.033795
0.361000,0.158999
0.362000,0.289037
0.363000,0.315886
0.364000,0.300682
0.365000,0.225635
0.366000,-0.327837
0.367000,-0.293225
0.368000,-0.275434
0.369000,-0.265406
0.370000,-0.258289
0.371000,-0.252790
0.372000,-0.246644
0.373000,-0.244380
0.374000,-0.242115
0.375000,-0.240498
0.376000,-0.241468
0.377000,-0.247291
0.378000,-0.251820
0.379000,-0.255378
0.380000,-0.254408
0.381000,-0.252467
0.382000,-0.246321
0.383000,-0.238557
0.384000,-0.228529
0.385000,-0.223030
0.386000,-0.218825
0.387000,-0.214943
0.388000,-0.212355
0.389000,-0.210091
0.390000,-0.209121
0.391000,-0.208797
0.392000,-0.209768
0.393000,-0.213326
0.394000,-0.221089
0.395000,-0.227559
0.396000,-0.231441
0.397000,-0.232411
0.398000,-0.230794
0.399000,-0.225618
0.400000,-0.217855
0.401000,-0.209768
0.402000,-0.205886
0.403000,-0.201357
0.404000,-0.199093
0.405000,-0.197152
0.406000,-0.195211
0.407000,-0.194241
0.408000,-0.194888
0.409000,-0.196505
0.410000,-0.201681
0.411000,-0.210415
0.412000,-0.216884
0.413000,-0.220119
0.414000,-0.221413
0.415000,-0.219472
0.416000,-0.212679
0.417000,-0.204268
0.418000,-0.197475
0.419000,-0.194241
0.420000,-0.190359
0.421000,-0.188418
0.422000,-0.186154
0.423000,-0.185507
0.424000,-0.185507
0.425000,-0.185830
0.426000,-0.188094
0.427000,-0.196505
0.428000,-0.203621
0.429000,-0.209768
0.430000,-0.212679
0.431000,-0.213002
0.432000,-0.209121
0.433000,-0.202328
0.434000,-0.194241
0.435000,-0.189388
0.436000,-0.186154
0.437000,-0.182595
0.438000,-0.180654
0.439000,-0.178714
0.440000,-0.178067
0.441000,-0.178390
0.442000,-0.179361
0.443000,-0.183889
0.444000,-0.192623
0.445000,-0.199416
0.446000,-0.204592
0.447000,-0.206856
0.448000,-0.205239
0.449000,-0.201357
0.450000,-0.194241
0.451000,-0.186154
0.452000,-0.182595
0.453000,-0.179684
0.454000,-0.176126
0.455000,-0.175155
0.456000,-0.172567
0.457000,-0.172891
0.458000,-0.173538
0.459000,-0.175479
0.460000,-0.180978
0.461000,-0.189712
0.462000,-0.196828
0.463000,-0.200710
0.464000,-0.202328
0.465000,-0.200710
0.466000,-0.193594
0.467000,-0.187124
0.468000,-0.180007
0.469000,-0.176773
0.470000,-0.173861
0.471000,-0.171274
0.472000,-0.169009
0.473000,-0.168362
0.474000,-0.168686
0.475000,-0.168686
0.476000,-0.171274
0.477000,-0.180007
0.478000,-0.187448
0.479000,-0.193917
0.480000,-0.196828
0.481000,-0.197799
0.482000,-0.194241
0.483000,-0.187448
0.484000,-0.179361
0.485000,-0.175155
0.486000,-0.171597
0.487000,-0.169009
0.488000,-0.166745
0.489000,-0.164480
0.490000,-0.164157
0.491000,-0.165127
0.492000,-0.165774
0.493000,-0.170303
0.494000,-0.179037
0.495000,-0.186154
0.496000,-0.191329
0.497000,-0.193917
0.498000,-0.192300
0.499000,-0.189065
0.500000,-0.181948
0.501000,-0.174185
0.502000,-0.169980
0.503000,-0.167715
0.504000,-0.164157
0.505000,-0.161569
0.506000,-0.161246
0.507000,-0.159952
0.508000,-0.161893
0.509000,-0.163510
0.510000,-0.169980
0.511000,-0.178390
0.512000,-0.185507
0.513000,-0.189065
0.514000,-0.190359
0.515000,-0.189065
0.516000,-0.182919
0.517000,-0.176126
0.518000,-0.169333
0.519000,-0.166098
0.520000,-0.162863
0.521000,-0.160599
0.522000,-0.158658
0.523000,-0.157687
0.524000,-0.157687
0.525000,-0.159628
0.526000,-0.161569
0.527000,-0.169656
0.528000,-0.178067
0.529000,-0.184213
0.530000,-0.186801
0.531000,-0.188418
0.532000,-0.185183
0.533000,-0.178067
0.534000,-0.170303
0.535000,-0.166098
0.536000,-0.161893
0.537000,-0.159305
0.538000,-0.157040
0.539000,-0.155100
0.540000,-0.154776
0.541000,-0.155423
0.542000,-0.156394
0.543000,-0.161246
0.544000,-0.170303
0.545000,-0.177743
0.546000,-0.182919
0.547000,-0.185183
0.548000,-0.184213
0.549000,-0.180654
0.550000,-0.173214
0.551000,-0.165451
0.552000,-0.161893
0.553000,-0.158981
0.554000,-0.156070
0.555000,-0.154129
0.556000,-0.151865
0.557000,-0.152835
0.558000,-0.153806
0.559000,-0.154776
0.560000,-0.161569
0.561000,-0.170627
0.562000,-0.177420
0.563000,-0.181625
0.564000,-0.183889
0.565000,-0.181948
0.566000,-0.175479
0.567000,-0.168362
0.568000,-0.161246
0.569000,-0.158334
0.570000,-0.155423
0.571000,-0.153159
0.572000,-0.151218
0.573000,-0.150247
0.574000,-0.150571
0.575000,-0.152188
0.576000,-0.153806
0.577000,-0.162540
0.578000,-0.170627
0.579000,-0.177096
0.580000,-0.180007
0.581000,-0.180978
0.582000,-0.177420
0.583000,-0.170950
0.584000,-0.163187
0.585000,-0.158658
0.586000,-0.155100
0.587000,-0.152512
0.588000,-0.150247
0.589000,-0.148307
0.590000,-0.148307
0.591000,-0.148630
0.592000,-0.149924
0.593000,-0.154776
0.594000,-0.163510
0.595000,-0.170950
0.596000,-0.176126
0.597000,-0.178714
0.598000,-0.177420
0.599000,-0.173861
0.600000,-0.166745
0.601000,-0.158981
0.602000,-0.155100
0.603000,-0.152512
0.604000,-0.149924
0.605000,-0.147336
0.606000,-0.146366
0.607000,-0.146042
0.608000,-0.147660
0.609000,-0.148630
0.610000,-0.155747
0.611000,-0.164157
0.612000,-0.171921
0.613000,-0.175155
0.614000,-0.177420
0.615000,-0.175479
0.616000,0.246985
0.617000,0.086863
0.618000,-0.062908
0.619000,-0.127604
0.620000,-0.177420
0.621000,-0.204268
0.622000,-0.216237
0.623000,-0.199416
0.624000,-0.159628
0.625000,-0.101079
0.626000,-0.020856
0.627000,0.175496
0.628000,0.314268
0.629000,0.340147
0.630000,0.318150
0.631000,0.281597
0.632000,0.175496
0.633000,0.016991
0.634000,-0.170303
0.635000,-0.273169
0.636000,-0.333013
0.637000,-0.361156
0.638000,-0.358244
0.639000,-0.342717
0.640000,-0.310046
0.641000,-0.254408
0.642000,-0.198122
0.643000,-0.077788
0.644000,0.115329
0.645000,0.256689
0.646000,0.316533
0.647000,0.306505
0.648000,0.240515
0.649000,0.131179
0.650000,-0.045117
0.651000,-0.220442
0.652000,-0.301312
0.653000,-0.347246
0.654000,-0.362773
0.655000,-0.354686
0.656000,-0.334307
0.657000,-0.294519
0.658000,-0.237263
0.659000,-0.166745
0.660000,-0.023767
0.661000,0.166762
0.662000,0.296477
0.663000,0.316209
0.664000,0.298741
0.665000,0.220136
0.666000,0.056456
0.667000,-0.105607
0.668000,-0.257642
0.669000,-0.320074
0.670000,-0.356304
0.671000,-0.357274
0.672000,-0.348217
0.673000,-0.318456
0.674000,-0.277375
0.675000,-0.219795
0.676000,-0.137308
0.677000,0.060014
0.678000,0.214313
0.679000,0.313298
0.680000,0.311357
0.681000,0.280950
0.682000,0.175819
0.683000,0.011169
0.684000,-0.175155
0.685000,-0.274787
0.686000,-0.334954
0.687000,-0.361479
0.688000,-0.359215
0.689000,-0.344335
0.690000,-0.310693
0.691000,-0.254408
0.692000,-0.198769
0.693000,-0.079082
0.694000,0.115652
0.695000,0.257013
0.696000,0.315562
0.697000,0.307475
0.698000,0.241162
0.699000,0.128268
0.700000,-0.047058
0.701000,-0.220766
0.702000,-0.301312
0.703000,-0.348540
0.704000,-0.363097
0.705000,-0.354686
0.706000,-0.333983
0.707000,-0.293872
0.708000,-0.238557
0.709000,-0.168362
0.710000,-0.021503
0.711000,0.164498
0.712000,0.292272
0.713000,0.316856
0.714000,0.299712
0.715000,0.218842
0.716000,0.056132
0.717000,-0.107872
0.718000,-0.257966
0.719000,-0.319750
0.720000,-0.355333
0.721000,-0.358244
0.722000,-0.348217
0.723000,-0.318456
0.724000,-0.277375
0.725000,-0.219472
0.726000,-0.139249
0.727000,0.063249
0.728000,0.214313
0.729000,0.310063
0.730000,0.307475
0.731000,0.277715
0.732000,0.173555
0.733000,0.010198
0.734000,-0.175479
0.735000,-0.276404
0.736000,-0.335924
0.737000,-0.361156
0.738000,-0.356950
0.739000,-0.344658
0.740000,-0.309076
0.741000,-0.254084
0.742000,-0.198122
0.743000,-0.074230
0.744000,0.116623
0.745000,0.259277
0.746000,0.315562
0.747000,0.306505
0.748000,0.240192
0.749000,0.125680
0.750000,-0.047381
0.751000,-0.222707
0.752000,-0.300665
0.753000,-0.348217
0.754000,-0.362450
0.755000,-0.355333
0.756000,-0.332366
0.757000,-0.293872
0.758000,-0.239204
0.759000,-0.167068
0.760000,-0.014063
0.761000,0.168056
0.762000,0.297771
0.763000,0.313621
0.764000,0.299712
0.765000,0.220136
0.766000,0.054515
0.767000,-0.106901
0.768000,-0.258289
0.769000,-0.318133
0.770000,-0.356950
0.771000,-0.360832
0.772000,-0.348540
0.773000,-0.319427
0.774000,-0.276728
0.775000,-0.218178
0.776000,-0.134073
0.777000,0.065513
0.778000,0.217548
0.779000,0.313298
0.780000,0.312004
0.781000,0.277068
0.782000,0.174849
0.783000,0.010522
0.784000,-0.179684
0.785000,-0.275757
0.786000,-0.335924
0.787000,-0.363744
0.788000,-0.359215
0.789000,-0.344658
0.790000,-0.310046
0.791000,-0.252790
0.792000,-0.197475
0.793000,-0.070348
0.794000,0.121475
0.795000,0.260571
0.796000,0.315562
0.797000,0.305534
0.798000,0.239868
0.799000,0.124386
0.800000,-0.050292
0.801000,-0.224324
0.802000,-0.304223
0.803000,-0.349834
0.804000,-0.362126
0.805000,-0.357274
0.806000,-0.332043
0.807000,-0.293872
0.808000,-0.238557
0.809000,-0.166421
0.810000,-0.014063
0.811000,0.169997
0.812000,0.295183
0.813000,0.317827
0.814000,0.300682
0.815000,0.215607
0.816000,0.051927
0.817000,-0.110460
0.818000,-0.256025
0.819000,-0.320397
0.820000,-0.356627
0.821000,-0.360832
0.822000,-0.350481
0.823000,-0.317486
0.824000,-0.276404
0.825000,-0.219795
0.826000,-0.136338
0.827000,0.067130
0.828000,0.218195
0.829000,0.312651
0.830000,0.311034
0.831000,0.274481
0.832000,0.172585
0.833000,0.008581
0.834000,-0.180007
0.835000,-0.276404
0.836000,-0.335601
0.837000,-0.361803
0.838000,-0.358244
0.839000,-0.344335
0.840000,-0.309723
0.841000,-0.252790
0.842000,-0.197152
0.843000,-0.070672
0.844000,0.120181
0.845000,0.261541
0.846000,0.314268
0.847000,0.304888
0.848000,0.238574
0.849000,0.122769
0.850000,-0.051910
0.851000,-0.223677
0.852000,-0.303576
0.853000,-0.350804
0.854000,-0.360185
0.855000,-0.354039
0.856000,-0.332690
0.857000,-0.293549
0.858000,-0.237587
0.859000,-0.165127
0.860000,-0.007593
0.861000,0.172261
0.862000,0.296477
0.863000,0.316209
0.864000,0.298094
0.865000,0.217548
0.866000,-0.308105
0.867000,-0.285138
0.868000,-0.269611
0.869000,-0.260554
0.870000,-0.254084
0.871000,-0.248909
0.872000,-0.244380
0.873000,-0.241792
0.874000,-0.239528
0.875000,-0.238557
0.876000,-0.239851
0.877000,-0.245674
0.878000,-0.250849
0.879000,-0.253761
0.880000,-0.253114
0.881000,-0.251173
0.882000,-0.245027
0.883000,-0.236293
0.884000,-0.227235
0.885000,-0.222383
0.886000,-0.217531
0.887000,-0.213973
0.888000,-0.211061
0.889000,-0.209444
0.890000,-0.208797
0.891000,-0.207827
0.892000,-0.209121
0.893000,-0.213326
0.894000,-0.221089
0.895000,-0.228206
0.896000,-0.231764
0.897000,-0.232088
0.898000,-0.229823
0.899000,-0.224648
0.900000,-0.216561
0.901000,-0.208797
0.902000,-0.204592
0.903000,-0.201357
0.904000,-0.198122
0.905000,-0.195858
0.906000,-0.194564
0.907000,-0.194241
0.908000,-0.194888
0.909000,-0.196505
0.910000,-0.202004
0.911000,-0.210738
0.912000,-0.216884
0.913000,-0.220119
0.914000,-0.221089
0.915000,-0.217855
0.916000,-0.210738
0.917000,-0.204592
0.918000,-0.197475
0.919000,-0.194241
0.920000,-0.190359
0.921000,-0.188094
0.922000,-0.185830
0.923000,-0.184536
0.924000,-0.184860
0.925000,-0.185830
0.926000,-0.188741
0.927000,-0.197799
0.928000,-0.204592
0.929000,-0.209444
0.930000,-0.212679
0.931000,-0.212032
0.932000,-0.207827
0.933000,-0.201681
0.934000,-0.193594
0.935000,-0.188741
0.936000,-0.185507
0.937000,-0.182272
0.938000,-0.179361
0.939000,-0.178067
0.940000,-0.178067
0.941000,-0.178067
0.942000,-0.179361
0.943000,-0.184213
0.944000,-0.192947
0.945000,-0.200063
0.946000,-0.204592
0.947000,-0.207180
0.948000,-0.205886
0.949000,-0.200710
0.950000,-0.193270
0.951000,-0.186154
0.952000,-0.181301
0.953000,-0.179037
0.954000,-0.176449
0.955000,-0.174185
0.956000,-0.172891
0.957000,-0.172244
0.958000,-0.173538
0.959000,-0.175479
0.960000,-0.182272
0.961000,-0.190359
0.962000,-0.197475
0.963000,-0.200710
0.964000,-0.202328
0.965000,-0.199416
0.966000,-0.192947
0.967000,-0.185830
0.968000,-0.179037
0.969000,-0.176126
0.970000,-0.172567
0.971000,-0.170950
0.972000,-0.169009
0.973000,-0.167392
0.974000,-0.168039
0.975000,-0.169009
0.976000,-0.171921
0.977000,-0.180654
0.978000,-0.188094
0.979000,-0.194241
0.980000,-0.196828
0.981000,-0.197475
0.982000,-0.193594
0.983000,-0.186801
0.984000,-0.178714
0.985000,-0.174508
0.986000,-0.171921
0.987000,-0.167715
0.988000,-0.166098
0.989000,-0.164480
0.990000,-0.164157
0.991000,-0.164804
0.992000,-0.166098
0.993000,-0.171274
0.994000,-0.180007
0.995000,-0.187124
0.996000,-0.191329
0.997000,-0.193594
0.998000,-0.192623
0.999000,-0.188094
1.000000,-0.181301
1.001000,-0.173538
1.002000,-0.169656
1.003000,-0.166421
1.004000,-0.163834
1.005000,-0.161893
1.006000,-0.160922
1.007000,-0.160275
1.008000,-0.161246
1.009000,-0.163510
1.010000,-0.170303
1.011000,-0.178714
1.012000,-0.186154
1.013000,-0.189388
1.014000,-0.191006
1.015000,-0.188741
1.016000,-0.182272
1.017000,-0.174832
1.018000,-0.168686
1.019000,-0.165774
1.020000,-0.163187
1.021000,-0.159628
1.022000,-0.158658
1.023000,-0.158981
1.024000,-0.158011
1.025000,-0.158658
1.026000,-0.160922
1.027000,-0.170627
1.028000,-0.178390
1.029000,-0.184213
1.030000,-0.187124
1.031000,-0.188418
1.032000,-0.184213
1.033000,-0.178067
1.034000,-0.169656
1.035000,-0.164804
1.036000,-0.161893
1.037000,-0.159305
1.038000,-0.156717
1.039000,-0.155100
1.040000,-0.154776
1.041000,-0.155423
1.042000,-0.157040
1.043000,-0.161893
1.044000,-0.170950
1.045000,-0.178714
1.046000,-0.182919
1.047000,-0.185183
1.048000,-0.183566
1.049000,-0.179684
1.050000,-0.172891
1.051000,-0.165127
1.052000,-0.161246
1.053000,-0.158334
1.054000,-0.155747
1.055000,-0.153482
1.056000,-0.152512
1.057000,-0.152512
1.058000,-0.153159
1.059000,-0.155423
1.060000,-0.162540
1.061000,-0.170303
1.062000,-0.178067
1.063000,-0.181948
1.064000,-0.183242
1.065000,-0.180978
1.066000,-0.174832
1.067000,-0.167068
1.068000,-0.161246
1.069000,-0.158011
1.070000,-0.155423
1.071000,-0.152512
1.072000,-0.151218
1.073000,-0.150247
1.074000,-0.151541
1.075000,-0.151218
1.076000,-0.154129
1.077000,-0.163510
1.078000,-0.171597
1.079000,-0.177096
1.080000,-0.180654
1.081000,-0.180978
1.082000,-0.177096
1.083000,-0.170303
1.084000,-0.162216
1.085000,-0.158011
1.086000,-0.155100
1.087000,-0.152188
1.088000,-0.150571
1.089000,-0.148307
1.090000,-0.147983
1.091000,-0.148954
1.092000,-0.149924
1.093000,-0.154776
1.094000,-0.163510
1.095000,-0.171274
1.096000,-0.176126
1.097000,-0.178714
1.098000,-0.177743
1.099000,-0.172567
1.100000,-0.166421
1.101000,-0.158658
1.102000,-0.154776
1.103000,-0.152188
1.104000,-0.149600
1.105000,-0.147013
1.106000,-0.146042
1.107000,-0.146366
1.108000,-0.147013
1.109000,-0.149277
1.110000,-0.156394
1.111000,-0.164804
1.112000,-0.171597
1.113000,-0.175479
1.114000,-0.177420
1.115000,0.374112
1.116000,0.182289
1.117000,0.016344
1.118000,-0.122752
1.119000,-0.186477
1.120000,-0.236616
1.121000,-0.261848
1.122000,-0.270582
1.123000,-0.249232
1.124000,-0.209444
1.125000,-0.146689
1.126000,-0.064849
1.127000,0.137649
1.128000,0.285155
1.129000,0.334001
1.130000,0.315239
1.131000,0.270275
1.132000,0.167409
1.133000,0.001141
1.134000,-0.184536
1.135000,-0.279639
1.136000,-0.336895
1.137000,-0.362450
1.138000,-0.355980
1.139000,-0.342394
1.140000,-0.307782
1.141000,-0.252143
1.142000,-0.195211
1.143000,-0.061938
1.144000,0.127945
1.145000,0.266394
1.146000,0.316209
1.147000,0.305211
1.148000,0.235016
1.149000,0.111771
1.150000,-0.058703
1.151000,-0.229500
1.152000,-0.305841
1.153000,-0.349834
1.154000,-0.362450
1.155000,-0.353716
1.156000,-0.329778
1.157000,-0.289990
1.158000,-0.235646
1.159000,-0.161569
1.160000,0.001788
1.161000,0.177437
1.162000,0.300035
1.163000,0.315886
1.164000,0.297124
1.165000,0.212696
1.166000,0.045781
1.167000,-0.123075
1.168000,-0.261201
1.169000,-0.322662
1.170000,-0.357274
1.171000,-0.359538
1.172000,-0.348217
1.173000,-0.316839
1.174000,-0.271876
1.175000,-0.213326
1.176000,-0.133427
1.177000,0.080393
1.178000,0.224988
1.179000,0.310063
1.180000,0.311034
1.181000,0.267040
1.182000,0.164174
1.183000,0.000170
1.184000,-0.187771
1.185000,-0.281903
1.186000,-0.337865
1.187000,-0.363420
1.188000,-0.358891
1.189000,-0.341100
1.190000,-0.308105
1.191000,-0.248585
1.192000,-0.192300
1.193000,-0.063879
1.194000,0.130209
1.195000,0.267040
1.196000,0.315886
1.197000,0.302947
1.198000,0.234369
1.199000,0.110477
1.200000,-0.059026
1.201000,-0.231441
1.202000,-0.307135
1.203000,-0.349834
1.204000,-0.361156
1.205000,-0.352098
1.206000,-0.328808
1.207000,-0.291284
1.208000,-0.235969
1.209000,-0.160275
1.210000,0.003729
1.211000,0.177760
1.212000,0.301653
1.213000,0.314592
1.214000,0.297771
1.215000,0.210432
1.216000,0.046428
1.217000,-0.124369
1.218000,-0.259583
1.219000,-0.323632
1.220000,-0.356627
1.221000,-0.362126
1.222000,-0.347893
1.223000,-0.316839
1.224000,-0.271229
1.225000,-0.217208
1.226000,-0.128574
1.227000,0.076511
1.228000,0.226929
1.229000,0.310387
1.230000,0.310387
1.231000,0.268011
1.232000,0.165145
1.233000,-0.002094
1.234000,-0.191006
1.235000,-0.285138
1.236000,-0.337542
1.237000,-0.362450
1.238000,-0.357274
1.239000,-0.339483
1.240000,-0.304547
1.241000,-0.249555
1.242000,-0.192300
1.243000,-0.062585
1.244000,0.128591
1.245000,0.268981
1.246000,0.315886
1.247000,0.303594
1.248000,0.236957
1.249000,0.110800
1.250000,-0.059350
1.251000,-0.230794
1.252000,-0.307458
1.253000,-0.348864
1.254000,-0.362126
1.255000,-0.355657
1.256000,-0.328808
1.257000,-0.290314
1.258000,-0.234028
1.259000,-0.159628
1.260000,0.004699
1.261000,0.179701
1.262000,0.301329
1.263000,0.315886
1.264000,0.297124
1.265000,0.209785
1.266000,0.044163
1.267000,-0.126957
1.268000,-0.262171
1.269000,-0.323956
1.270000,-0.357921
1.271000,-0.359862
1.272000,-0.347570
1.273000,-0.318456
1.274000,-0.270905
1.275000,-0.214943
1.276000,-0.124369
1.277000,0.077482
1.278000,0.231458
1.279000,0.314268
1.280000,0.306828
1.281000,0.263482
1.282000,0.162557
1.283000,-0.004358
1.284000,-0.191006
1.285000,-0.283844
1.286000,-0.338189
1.287000,-0.363744
1.288000,-0.355980
1.289000,-0.341424
1.290000,-0.308429
1.291000,-0.249232
1.292000,-0.191653
1.293000,-0.059026
1.294000,0.133767
1.295000,0.270599
1.296000,0.316209
1.297000,0.304888
1.298000,0.235016
1.299000,0.104331
1.300000,-0.059673
1.301000,-0.231117
1.302000,-0.309723
1.303000,-0.351775
1.304000,-0.362126
1.305000,-0.352422
1.306000,-0.328484
1.307000,-0.291608
1.308000,-0.234028
1.309000,-0.158658
1.310000,0.005993
1.311000,0.181966
1.312000,0.299712
1.313000,0.316209
1.314000,0.296477
1.315000,0.209461
1.316000,0.043193
1.317000,-0.128251
1.318000,-0.262818
1.319000,-0.323956
1.320000,-0.358244
1.321000,-0.358568
1.322000,-0.348217
1.323000,-0.314575
1.324000,-0.271552
1.325000,-0.215914
1.326000,-0.126957
1.327000,0.077482
1.328000,0.229840
1.329000,0.315239
1.330000,0.310387
1.331000,0.265100
1.332000,0.160939
1.333000,-0.004358
1.334000,-0.190359
1.335000,-0.285138
1.336000,-0.337542
1.337000,-0.361156
1.338000,-0.357921
1.339000,-0.342717
1.340000,-0.309723
1.341000,-0.248909
1.342000,-0.191329
1.343000,-0.059673
1.344000,0.133120
1.345000,0.271569
1.346000,0.317180
1.347000,0.303917
1.348000,0.232752
1.349000,0.104331
1.350000,-0.065496
1.351000,-0.233382
1.352000,-0.307135
1.353000,-0.352745
1.354000,-0.359538
1.355000,-0.351775
1.356000,-0.326543
1.357000,-0.289667
1.358000,-0.232411
1.359000,-0.158658
1.360000,0.007934
1.361000,0.184230
1.362000,0.301653
1.363000,0.315239
1.364000,0.296801
1.365000,-0.336248
1.366000,-0.294843
1.367000,-0.276728
1.368000,-0.264436
1.369000,-0.256672
1.370000,-0.250526
1.371000,-0.245674
1.372000,-0.241145
1.373000,-0.238557
1.374000,-0.237263
1.375000,-0.236616
1.376000,-0.237910
1.377000,-0.244703
1.378000,-0.249555
1.379000,-0.252143
1.380000,-0.252467
1.381000,-0.248909
1.382000,-0.243733
1.383000,-0.235646
1.384000,-0.225942
1.385000,-0.219795
1.386000,-0.216561
1.387000,-0.213326
1.388000,-0.210091
1.389000,-0.208150
1.390000,-0.206856
1.391000,-0.207827
1.392000,-0.208150
1.393000,-0.213326
1.394000,-0.221413
1.395000,-0.227235
1.396000,-0.230794
1.397000,-0.232088
1.398000,-0.228529
1.399000,-0.223030
1.400000,-0.215590
1.401000,-0.207827
1.402000,-0.203621
1.403000,-0.200063
1.404000,-0.198122
1.405000,-0.195211
1.406000,-0.193917
1.407000,-0.193594
1.408000,-0.193917
1.409000,-0.196181
1.410000,-0.202974
1.411000,-0.210738
1.412000,-0.217208
1.413000,-0.219472
1.414000,-0.220766
1.415000,-0.217208
1.416000,-0.210415
1.417000,-0.202974
1.418000,-0.196505
1.419000,-0.192947
1.420000,-0.190035
1.421000,-0.187448
1.422000,-0.184860
1.423000,-0.184213
1.424000,-0.184860
1.425000,-0.185830
1.426000,-0.188418
1.427000,-0.197152
1.428000,-0.204592
1.429000,-0.209768
1.430000,-0.212355
1.431000,-0.211708
1.432000,-0.208474
1.433000,-0.200387
1.434000,-0.192947
1.435000,-0.188418
1.436000,-0.183889
1.437000,-0.182595
1.438000,-0.180007
1.439000,-0.177743
1.440000,-0.177420
1.441000,-0.178390
1.442000,-0.179037
1.443000,-0.184536
1.444000,-0.193270
1.445000,-0.199740
1.446000,-0.204268
1.447000,-0.207180
1.448000,-0.204915
1.449000,-0.200063
1.450000,-0.192623
1.451000,-0.184860
1.452000,-0.181301
1.453000,-0.178714
1.454000,-0.177096
1.455000,-0.174185
1.456000,-0.172891
1.457000,-0.172891
1.458000,-0.173214
1.459000,-0.175802
1.460000,-0.182272
1.461000,-0.190359
1.462000,-0.197475
1.463000,-0.200387
1.464000,-0.201681
1.465000,-0.199093
1.466000,-0.192300
1.467000,-0.184860
1.468000,-0.179037
1.469000,-0.175479
1.470000,-0.172567
1.471000,-0.169980
1.472000,-0.168686
1.473000,-0.168039
1.474000,-0.167715
1.475000,-0.169333
1.476000,-0.172567
1.477000,-0.180978
1.478000,-0.188741
1.479000,-0.194564
1.480000,-0.196828
1.481000,-0.197152
1.482000,-0.192623
1.483000,-0.186801
1.484000,-0.178390
1.485000,-0.173861
1.486000,-0.171597
1.487000,-0.167392
1.488000,-0.165127
1.489000,-0.164804
1.490000,-0.163510
1.491000,-0.164157
1.492000,-0.165774
1.493000,-0.171274
1.494000,-0.180654
1.495000,-0.187448
1.496000,-0.191976
1.497000,-0.193917
1.498000,-0.191976
1.499000,-0.187448
1.500000,-0.180978
1.501000,-0.172891
1.502000,-0.169656
1.503000,-0.166745
1.504000,-0.164157
1.505000,-0.161246
1.506000,-0.160275
1.507000,-0.160599
1.508000,-0.161893
1.509000,-0.163187
1.510000,-0.170950
1.511000,-0.179361
1.512000,-0.185507
1.513000,-0.190035
1.514000,-0.191329
1.515000,-0.188094
1.516000,-0.181948
1.517000,-0.174185
1.518000,-0.168362
1.519000,-0.165451
1.520000,-0.161893
1.521000,-0.159628
1.522000,-0.158011
1.523000,-0.157364
1.524000,-0.157687
1.525000,-0.158981
1.526000,-0.161893
1.527000,-0.170627
1.528000,-0.179361
1.529000,-0.184860
1.530000,-0.187124
1.531000,-0.187124
1.532000,-0.184213
1.533000,-0.177096
1.534000,-0.169009
1.535000,-0.164480
1.536000,-0.161569
1.537000,-0.158658
1.538000,-0.157040
1.539000,-0.155100
1.540000,-0.155100
1.541000,-0.155423
1.542000,-0.156717
1.543000,-0.162540
1.544000,-0.171274
1.545000,-0.178390
1.546000,-0.182595
1.547000,-0.185507
1.548000,-0.183889
1.549000,-0.178714
1.550000,-0.171921
1.551000,-0.164480
1.552000,-0.161246
1.553000,-0.158334
1.554000,-0.155423
1.555000,-0.153482
1.556000,-0.152512
1.557000,-0.152512
1.558000,-0.153806
1.559000,-0.155423
1.560000,-0.163187
1.561000,-0.171274
1.562000,-0.177743
1.563000,-0.181625
1.564000,-0.183242
1.565000,-0.180331
1.566000,-0.173861
1.567000,-0.166745
1.568000,-0.160922
1.569000,-0.158011
1.570000,-0.155100
1.571000,-0.152512
1.572000,-0.150894
1.573000,-0.150247
1.574000,-0.150571
1.575000,-0.151541
1.576000,-0.154776
1.577000,-0.164157
1.578000,-0.171597
1.579000,-0.177420
1.580000,-0.180654
1.581000,-0.180007
1.582000,-0.177096
1.583000,-0.169656
1.584000,-0.162216
1.585000,-0.158011
1.586000,-0.154776
1.587000,-0.151541
1.588000,-0.149924
1.589000,-0.147660
1.590000,-0.147983
1.591000,-0.149600
1.592000,-0.150894
1.593000,-0.156070
1.594000,-0.164804
1.595000,-0.171921
1.596000,-0.176449
1.597000,-0.178390
1.598000,-0.177743
1.599000,-0.172244
1.600000,-0.165451
1.601000,-0.158334
1.602000,-0.154776
1.603000,-0.151865
1.604000,-0.149277
1.605000,-0.147336
1.606000,-0.146042
1.607000,-0.146042
1.608000,-0.147336
1.609000,-0.149600
1.610000,-0.156394
1.611000,-0.165127
1.612000,-0.171921
1.613000,-0.176126
1.614000,-0.177096
1.615000,0.297448
1.616000,0.135708
1.617000,-0.037353
1.618000,-0.164157
1.619000,-0.227882
1.620000,-0.275110
1.621000,-0.300342
1.622000,-0.303900
1.623000,-0.278345
1.624000,-0.231441
1.625000,-0.178390
1.626000,-0.081023
1.627000,0.119211
1.628000,0.267687
1.629000,0.325267
1.630000,0.311681
1.631000,0.259600
1.632000,0.158028
1.633000,-0.012445
1.634000,-0.197475
1.635000,-0.288049
1.636000,-0.339806
1.637000,-0.362773
1.638000,-0.357921
1.639000,-0.340453
1.640000,-0.302283
1.641000,-0.249879
1.642000,-0.186477
1.643000,-0.052880
1.644000,0.142825
1.645000,0.275774
1.646000,0.317503
1.647000,0.303594
1.648000,0.232752
1.649000,0.093656
1.650000,-0.071319
1.651000,-0.243409
1.652000,-0.312634
1.653000,-0.354363
1.654000,-0.361156
1.655000,-0.351775
1.656000,-0.324926
1.657000,-0.284491
1.658000,-0.228853
1.659000,-0.153159
1.660000,0.019256
1.661000,0.190376
1.662000,0.304888
1.663000,0.313298
1.664000,0.293566
1.665000,0.200727
1.666000,0.034783
1.667000,-0.139249
1.668000,-0.265406
1.669000,-0.327190
1.670000,-0.359538
1.671000,-0.360185
1.672000,-0.347246
1.673000,-0.316192
1.674000,-0.265729
1.675000,-0.210091
1.676000,-0.114018
1.677000,0.088480
1.678000,0.234369
1.679000,0.314592
1.680000,0.309093
1.681000,0.256366
1.682000,0.156411
1.683000,-0.016004
1.684000,-0.199093
1.685000,-0.289667
1.686000,-0.340130
1.687000,-0.362773
1.688000,-0.357274
1.689000,-0.339806
1.690000,-0.302930
1.691000,-0.246321
1.692000,-0.186154
1.693000,-0.055468
1.694000,0.141207
1.695000,0.278039
1.696000,0.315562
1.697000,0.303594
1.698000,0.230811
1.699000,0.092362
1.700000,-0.072612
1.701000,-0.243086
1.702000,-0.311340
1.703000,-0.351775
1.704000,-0.360185
1.705000,-0.352098
1.706000,-0.325250
1.707000,-0.288049
1.708000,-0.228206
1.709000,-0.150247
1.710000,0.027019
1.711000,0.189082
1.712000,0.306181
1.713000,0.313621
1.714000,0.293242
1.715000,0.196199
1.716000,0.034459
1.717000,-0.141190
1.718000,-0.265082
1.719000,-0.328484
1.720000,-0.360832
1.721000,-0.358244
1.722000,-0.345305
1.723000,-0.315222
1.724000,-0.265729
1.725000,-0.211708
1.726000,-0.109489
1.727000,0.092685
1.728000,0.236957
1.729000,0.314915
1.730000,0.309740
1.731000,0.255395
1.732000,0.156411
1.733000,-0.017298
1.734000,-0.201034
1.735000,-0.290314
1.736000,-0.342717
1.737000,-0.361803
1.738000,-0.357597
1.739000,-0.339483
1.740000,-0.300989
1.741000,-0.246321
1.742000,-0.184860
1.743000,-0.052233
1.744000,0.142178
1.745000,0.280303
1.746000,0.315239
1.747000,0.302300
1.748000,0.228223
1.749000,0.086539
1.750000,-0.077141
1.751000,-0.244380
1.752000,-0.311663
1.753000,-0.352422
1.754000,-0.361479
1.755000,-0.353392
1.756000,-0.323632
1.757000,-0.288696
1.758000,-0.230147
1.759000,-0.152512
1.760000,0.026696
1.761000,0.189406
1.762000,0.304564
1.763000,0.314915
1.764000,0.293889
1.765000,0.194581
1.766000,0.035430
1.767000,-0.144748
1.768000,-0.267347
1.769000,-0.331072
1.770000,-0.357597
1.771000,-0.358568
1.772000,-0.345952
1.773000,-0.316516
1.774000,-0.265082
1.775000,-0.211708
1.776000,-0.110460
1.777000,0.091068
1.778000,0.239868
1.779000,0.314592
1.780000,0.309416
1.781000,0.254748
1.782000,0.156734
1.783000,-0.018915
1.784000,-0.202004
1.785000,-0.291284
1.786000,-0.342394
1.787000,-0.362126
1.788000,-0.356950
1.789000,-0.340130
1.790000,-0.301959
1.791000,-0.246644
1.792000,-0.184536
1.793000,-0.048352
1.794000,0.145736
1.795000,0.279333
1.796000,0.317827
1.797000,0.300359
1.798000,0.225312
1.799000,0.087833
1.800000,-0.078112
1.801000,-0.245350
1.802000,-0.311340
1.803000,-0.353392
1.804000,-0.362450
1.805000,-0.351775
1.806000,-0.323632
1.807000,-0.285785
1.808000,-0.226912
1.809000,-0.151541
1.810000,0.027990
1.811000,0.192317
1.812000,0.304888
1.813000,0.312651
1.814000,0.292595
1.815000,0.194581
1.816000,0.033812
1.817000,-0.147660
1.818000,-0.265406
1.819000,-0.324926
1.820000,-0.360185
1.821000,-0.361156
1.822000,-0.346923
1.823000,-0.315545
1.824000,-0.264112
1.825000,-0.209121
1.826000,-0.103666
1.827000,0.090744
1.828000,0.241486
1.829000,0.316209
1.830000,0.309093
1.831000,0.253454
1.832000,0.154146
1.833000,-0.021179
1.834000,-0.204268
1.835000,-0.291608
1.836000,-0.342070
1.837000,-0.362773
1.838000,-0.357274
1.839000,-0.339483
1.840000,-0.302283
1.841000,-0.245027
1.842000,-0.183889
1.843000,-0.048675
1.844000,0.144765
1.845000,0.279656
1.846000,0.317180
1.847000,0.301653
1.848000,0.228223
1.849000,0.083628
1.850000,-0.077465
1.851000,-0.245350
1.852000,-0.311016
1.853000,-0.354686
1.854000,-0.361803
1.855000,-0.351775
1.856000,-0.324279
1.857000,-0.287403
1.858000,-0.226588
1.859000,-0.151541
1.860000,0.029930
1.861000,0.193287
1.862000,0.305858
1.863000,0.313621
1.864000,0.293242
1.865000,-0.312310
1.866000,-0.286109
1.867000,-0.269935
1.868000,-0.260230
1.869000,-0.253437
1.870000,-0.246968
1.871000,-0.242439
1.872000,-0.238557
1.873000,-0.236940
1.874000,-0.235646
1.875000,-0.234675
1.876000,-0.236616
1.877000,-0.243409
1.878000,-0.248585
1.879000,-0.250849
1.880000,-0.250849
1.881000,-0.247615
1.882000,-0.241792
1.883000,-0.232735
1.884000,-0.224324
1.885000,-0.219472
1.886000,-0.215914
1.887000,-0.212355
1.888000,-0.209121
1.889000,-0.207827
1.890000,-0.206533
1.891000,-0.207180
1.892000,-0.208150
1.893000,-0.213002
1.894000,-0.220766
1.895000,-0.226912
1.896000,-0.230147
1.897000,-0.231441
1.898000,-0.228529
1.899000,-0.222060
1.900000,-0.214296
1.901000,-0.207503
1.902000,-0.202328
1.903000,-0.200063
1.904000,-0.197799
1.905000,-0.194564
1.906000,-0.194241
1.907000,-0.193594
1.908000,-0.193917
1.909000,-0.196181
1.910000,-0.203621
1.911000,-0.210738
1.912000,-0.216884
1.913000,-0.220442
1.914000,-0.220442
1.915000,-0.216561
1.916000,-0.210091
1.917000,-0.201681
1.918000,-0.195858
1.919000,-0.192300
1.920000,-0.189712
1.921000,-0.186154
1.922000,-0.185507
1.923000,-0.184536
1.924000,-0.183889
1.925000,-0.185183
1.926000,-0.189065
1.927000,-0.197475
1.928000,-0.204592
1.929000,-0.210415
1.930000,-0.212355
1.931000,-0.210738
1.932000,-0.207503
1.933000,-0.200063
1.934000,-0.191329
1.935000,-0.187448
1.936000,-0.184860
1.937000,-0.181625
1.938000,-0.179361
1.939000,-0.178067
1.940000,-0.177420
1.941000,-0.178390
1.942000,-0.179684
1.943000,-0.184860
1.944000,-0.193594
1.945000,-0.200710
1.946000,-0.204592
1.947000,-0.206533
1.948000,-0.204915
1.949000,-0.198446
1.950000,-0.192300
1.951000,-0.184536
1.952000,-0.180978
1.953000,-0.177096
1.954000,-0.174832
1.955000,-0.173861
1.956000,-0.172244
1.957000,-0.172567
1.958000,-0.173214
1.959000,-0.175479
1.960000,-0.182919
1.961000,-0.191329
1.962000,-0.197152
1.963000,-0.200387
1.964000,-0.201034
1.965000,-0.198446
1.966000,-0.191329
1.967000,-0.184213
1.968000,-0.178390
1.969000,-0.175155
1.970000,-0.172567
1.971000,-0.169980
1.972000,-0.168039
1.973000,-0.167068
1.974000,-0.168686
1.975000,-0.168686
1.976000,-0.172567
1.977000,-0.181625
1.978000,-0.189065
1.979000,-0.194564
1.980000,-0.196505
1.981000,-0.196181
1.982000,-0.192623
1.983000,-0.185830
1.984000,-0.177743
1.985000,-0.173861
1.986000,-0.170627
1.987000,-0.167715
1.988000,-0.165451
1.989000,-0.164157
1.990000,-0.163834
1.991000,-0.164480
1.992000,-0.166098
1.993000,-0.171274
1.994000,-0.180654
1.995000,-0.187771
1.996000,-0.191976
1.997000,-0.193917
1.998000,-0.192300
1.999000,-0.186154
2.000000,-0.180007
2.001000,-0.172244
2.002000,-0.169009
2.003000,-0.166745
2.004000,-0.163187
2.005000,-0.160922
2.006000,-0.160599
2.007000,-0.160599
2.008000,-0.161246
2.009000,-0.163834
2.010000,-0.171921
2.011000,-0.179361
2.012000,-0.186154
2.013000,-0.189065
2.014000,-0.191653
2.015000,-0.188094
2.016000,-0.181301
2.017000,-0.173538
2.018000,-0.168686
2.019000,-0.165127
2.020000,-0.162216
2.021000,-0.159305
2.022000,-0.158011
2.023000,-0.156717
2.024000,-0.158011
2.025000,-0.159952
2.026000,-0.162216
2.027000,-0.171921
2.028000,-0.179684
2.029000,-0.184860
2.030000,-0.187771
2.031000,-0.187124
2.032000,-0.183242
2.033000,-0.176449
2.034000,-0.168362
2.035000,-0.164157
2.036000,-0.161569
2.037000,-0.158658
2.038000,-0.156394
2.039000,-0.154776
2.040000,-0.154453
2.041000,-0.155747
2.042000,-0.157040
2.043000,-0.162216
2.044000,-0.171921
2.045000,-0.179037
2.046000,-0.183242
2.047000,-0.185183
2.048000,-0.183566
2.049000,-0.177743
2.050000,-0.170950
2.051000,-0.164157
2.052000,-0.160922
2.053000,-0.157687
2.054000,-0.155423
2.055000,-0.152188
2.056000,-0.152188
2.057000,-0.152512
2.058000,-0.153482
2.059000,-0.156070
2.060000,-0.163834
2.061000,-0.172244
2.062000,-0.178714
2.063000,-0.181301
2.064000,-0.183242
2.065000,-0.180007
2.066000,-0.173538
2.067000,-0.166098
2.068000,-0.160599
2.069000,-0.157687
2.070000,-0.154776
2.071000,-0.152188
2.072000,-0.149924
2.073000,-0.149924
2.074000,-0.150247
2.075000,-0.152188
2.076000,-0.156394
2.077000,-0.164480
2.078000,-0.171921
2.079000,-0.177420
2.080000,-0.180331
2.081000,-0.179361
2.082000,-0.176449
2.083000,-0.169009
2.084000,-0.161246
2.085000,-0.157364
2.086000,-0.154129
2.087000,-0.151541
2.088000,-0.149600
2.089000,-0.147983
2.090000,-0.147983
2.091000,-0.148954
2.092000,-0.150571
2.093000,-0.155747
2.094000,-0.164804
2.095000,-0.172244
2.096000,-0.176773
2.097000,-0.179037
2.098000,-0.177420
2.099000,-0.171597
2.100000,-0.164480
2.101000,-0.157364
2.102000,-0.154129
2.103000,-0.151218
2.104000,-0.148954
2.105000,-0.147336
2.106000,-0.146366
2.107000,-0.145719
2.108000,-0.147660
2.109000,-0.149277
2.110000,-0.157687
2.111000,-0.165774
2.112000,-0.171921
2.113000,-0.175802
2.114000,-0.177420
2.115000,0.251514
2.116000,0.091391
2.117000,-0.089757
2.118000,-0.204268
2.119000,-0.269611
2.120000,-0.312957
2.121000,-0.332043
2.122000,-0.326867
2.123000,-0.298724
2.124000,-0.244380
2.125000,-0.193917
2.126000,-0.082317
2.127000,0.113711
2.128000,0.255072
2.129000,0.319768
2.130000,0.308122
2.131000,0.250220
2.132000,0.147677
2.133000,-0.028296
2.134000,-0.209121
2.135000,-0.293225
2.136000,-0.341747
2.137000,-0.362126
2.138000,-0.356627
2.139000,-0.337218
2.140000,-0.299048
2.141000,-0.243733
2.142000,-0.179037
2.143000,-0.040912
2.144000,0.151558
2.145000,0.286449
2.146000,0.316856
2.147000,0.301976
2.148000,0.224665
2.149000,0.074894
2.150000,-0.086846
2.151000,-0.250849
2.152000,-0.315222
2.153000,-0.353716
2.154000,-0.361803
2.155000,-0.350804
2.156000,-0.321691
2.157000,-0.287726
2.158000,-0.224971
2.159000,-0.145072
2.160000,0.043193
2.161000,0.198139
2.162000,0.305211
2.163000,0.313298
2.164000,0.290978
2.165000,0.186171
2.166000,0.027019
2.167000,-0.156394
2.168000,-0.270905
2.169000,-0.331719
2.170000,-0.362450
2.171000,-0.358891
2.172000,-0.345305
2.173000,-0.313604
2.174000,-0.260230
2.175000,-0.207827
2.176000,-0.095579
2.177000,0.100772
2.178000,0.245367
2.179000,0.312651
2.180000,0.310710
2.181000,0.249573
2.182000,0.143148
2.183000,-0.031531
2.184000,-0.211061
2.185000,-0.296460
2.186000,-0.346599
2.187000,-0.361479
2.188000,-0.355333
2.189000,-0.338836
2.190000,-0.299371
2.191000,-0.245027
2.192000,-0.178067
2.193000,-0.039941
2.194000,0.154146
2.195000,0.284832
2.196000,0.316856
2.197000,0.303270
2.198000,0.224988
2.199000,0.074570
2.200000,-0.087492
2.201000,-0.253114
2.202000,-0.313928
2.203000,-0.352422
2.204000,-0.360509
2.205000,-0.351775
2.206000,-0.320397
2.207000,-0.285138
2.208000,-0.224324
2.209000,-0.143454
2.210000,0.043517
2.211000,0.198463
2.212000,0.308446
2.213000,0.312004
2.214000,0.288390
2.215000,0.188759
2.216000,0.024755
2.217000,-0.158334
2.218000,-0.269935
2.219000,-0.330425
2.220000,-0.362773
2.221000,-0.358244
2.222000,-0.345305
2.223000,-0.314898
2.224000,-0.259907
2.225000,-0.205239
2.226000,-0.092992
2.227000,0.100772
2.228000,0.248279
2.229000,0.318150
2.230000,0.305858
2.231000,0.247632
2.232000,0.147030
2.233000,-0.034442
2.234000,-0.211708
2.235000,-0.298401
2.236000,-0.343041
2.237000,-0.362450
2.238000,-0.355333
2.239000,-0.337865
2.240000,-0.299048
2.241000,-0.243086
2.242000,-0.177420
2.243000,-0.038324
2.244000,0.155117
2.245000,0.284832
2.246000,0.317180
2.247000,0.301006
2.248000,0.224988
2.249000,0.072306
2.250000,-0.090404
2.251000,-0.252790
2.252000,-0.316516
2.253000,-0.354363
2.254000,-0.360832
2.255000,-0.350481
2.256000,-0.320397
2.257000,-0.283197
2.258000,-0.225295
2.259000,-0.145395
2.260000,0.043193
2.261000,0.202345
2.262000,0.308446
2.263000,0.313298
2.264000,0.289684
2.265000,0.182936
2.266000,0.024755
2.267000,-0.158658
2.268000,-0.269611
2.269000,-0.332043
2.270000,-0.362450
2.271000,-0.359538
2.272000,-0.345305
2.273000,-0.312634
2.274000,-0.259907
2.275000,-0.204915
2.276000,-0.091698
2.277000,0.103360
2.278000,0.250220
2.279000,0.315562
2.280000,0.307475
2.281000,0.246661
2.282000,0.143472
2.283000,-0.033471
2.284000,-0.213649
2.285000,-0.297754
2.286000,-0.345629
2.287000,-0.363420
2.288000,-0.356627
2.289000,-0.338836
2.290000,-0.299695
2.291000,-0.242439
2.292000,-0.176773
2.293000,-0.037353
2.294000,0.156734
2.295000,0.286449
2.296000,0.318150
2.297000,0.300359
2.298000,0.224988
2.299000,0.069395
2.300000,-0.091698
2.301000,-0.254084
2.302000,-0.314575
2.303000,-0.354363
2.304000,-0.362126
2.305000,-0.350481
2.306000,-0.322985
2.307000,-0.282550
2.308000,-0.224001
2.309000,-0.144425
2.310000,0.044810
2.311000,0.204609
2.312000,0.309093
2.313000,0.310710
2.314000,0.289037
2.315000,0.181319
2.316000,0.018932
2.317000,-0.161893
2.318000,-0.270258
2.319000,-0.329131
2.320000,-0.361156
2.321000,-0.359215
2.322000,-0.345305
2.323000,-0.313281
2.324000,-0.258289
2.325000,-0.205562
2.326000,-0.091698
2.327000,0.104654
2.328000,0.247632
2.329000,0.316209
2.330000,0.306505
2.331000,0.245367
2.332000,0.142501
2.333000,-0.033148
2.334000,-0.214296
2.335000,-0.298724
2.336000,-0.344982
2.337000,-0.364067
2.338000,-0.356950
2.339000,-0.337218
2.340000,-0.298724
2.341000,-0.243733
2.342000,-0.176126
2.343000,-0.036706
2.344000,0.156411
2.345000,0.287743
2.346000,0.318474
2.347000,0.301653
2.348000,0.227253
2.349000,0.070042
2.350000,-0.092992
2.351000,-0.253114
2.352000,-0.316516
2.353000,-0.355980
2.354000,-0.358568
2.355000,-0.351451
2.356000,-0.322015
2.357000,-0.282227
2.358000,-0.224324
2.359000,-0.144425
2.360000,0.048369
2.361000,0.203962
2.362000,0.305534
2.363000,0.311681
2.364000,-0.345629
2.365000,-0.299371
2.366000,-0.279962
2.367000,-0.265729
2.368000,-0.255702
2.369000,-0.249555
2.370000,-0.244056
2.371000,-0.238881
2.372000,-0.236293
2.373000,-0.234028
2.374000,-0.233058
2.375000,-0.233058
2.376000,-0.235969
2.377000,-0.242762
2.378000,-0.247291
2.379000,-0.249879
2.380000,-0.249555
2.381000,-0.245997
2.382000,-0.240498
2.383000,-0.231441
2.384000,-0.223354
2.385000,-0.217855
2.386000,-0.214943
2.387000,-0.211385
2.388000,-0.208797
2.389000,-0.206856
2.390000,-0.206209
2.391000,-0.206209
2.392000,-0.207827
2.393000,-0.213002
2.394000,-0.220766
2.395000,-0.227235
2.396000,-0.229823
2.397000,-0.230794
2.398000,-0.227235
2.399000,-0.220442
2.400000,-0.213002
2.401000,-0.206209
2.402000,-0.202651
2.403000,-0.198769
2.404000,-0.196505
2.405000,-0.194241
2.406000,-0.192300
2.407000,-0.192947
2.408000,-0.193594
2.409000,-0.195534
2.410000,-0.203298
2.411000,-0.211385
2.412000,-0.216237
2.413000,-0.219472
2.414000,-0.220442
2.415000,-0.214943
2.416000,-0.208150
2.417000,-0.199740
2.418000,-0.195858
2.419000,-0.191653
2.420000,-0.189065
2.421000,-0.186477
2.422000,-0.184213
2.423000,-0.184213
2.424000,-0.184213
2.425000,-0.185183
2.426000,-0.189065
2.427000,-0.197799
2.428000,-0.204915
2.429000,-0.210091
2.430000,-0.212032
2.431000,-0.211061
2.432000,-0.206856
2.433000,-0.199416
2.434000,-0.191329
2.435000,-0.186477
2.436000,-0.184213
2.437000,-0.180978
2.438000,-0.178714
2.439000,-0.177743
2.440000,-0.177420
2.441000,-0.178067
2.442000,-0.179361
2.443000,-0.185183
2.444000,-0.193917
2.445000,-0.201034
2.446000,-0.204915
2.447000,-0.206209
2.448000,-0.204268
2.449000,-0.198122
2.450000,-0.191006
2.451000,-0.183566
2.452000,-0.180654
2.453000,-0.177420
2.454000,-0.175155
2.455000,-0.172567
2.456000,-0.171921
2.457000,-0.171921
2.458000,-0.173214
2.459000,-0.175802
2.460000,-0.183889
2.461000,-0.191329
2.462000,-0.197799
2.463000,-0.200710
2.464000,-0.201681
2.465000,-0.198122
2.466000,-0.191329
2.467000,-0.182919
2.468000,-0.177743
2.469000,-0.175479
2.470000,-0.171597
2.471000,-0.169656
2.472000,-0.168362
2.473000,-0.167068
2.474000,-0.167715
2.475000,-0.169009
2.476000,-0.172891
2.477000,-0.182272
2.478000,-0.189388
2.479000,-0.194241
2.480000,-0.196505
2.481000,-0.196828
2.482000,-0.191653
2.483000,-0.184860
2.484000,-0.177096
2.485000,-0.173214
2.486000,-0.171274
2.487000,-0.167715
2.488000,-0.165127
2.489000,-0.163510
2.490000,-0.163510
2.491000,-0.164480
2.492000,-0.166098
2.493000,-0.171921
2.494000,-0.181625
2.495000,-0.187771
2.496000,-0.191653
2.497000,-0.193270
2.498000,-0.191653
2.499000,-0.185507
2.500000,-0.178714
2.501000,-0.171921
2.502000,-0.168362
2.503000,-0.165774
2.504000,-0.163510
2.505000,-0.161246
2.506000,-0.160275
2.507000,-0.160275
2.508000,-0.161893
2.509000,-0.163834
2.510000,-0.172244
2.511000,-0.180331
2.512000,-0.186477
2.513000,-0.189712
2.514000,-0.191006
2.515000,-0.186801
2.516000,-0.180654
2.517000,-0.173214
2.518000,-0.168039
2.519000,-0.164804
2.520000,-0.161246
2.521000,-0.159628
2.522000,-0.158011
2.523000,-0.157687
2.524000,-0.158011
2.525000,-0.158981
2.526000,-0.163187
2.527000,-0.172567
2.528000,-0.179684
2.529000,-0.184536
2.530000,-0.187124
2.531000,-0.186154
2.532000,-0.182272
2.533000,-0.175155
2.534000,-0.167068
2.535000,-0.164157
2.536000,-0.161893
2.537000,-0.158658
2.538000,-0.155747
2.539000,-0.154776
2.540000,-0.155100
2.541000,-0.155100
2.542000,-0.157040
2.543000,-0.162863
2.544000,-0.171921
2.545000,-0.179361
2.546000,-0.183566
2.547000,-0.184860
2.548000,-0.183566
2.549000,-0.177420
2.550000,-0.170627
2.551000,-0.163187
2.552000,-0.160599
2.553000,-0.157364
2.554000,-0.155100
2.555000,-0.153482
2.556000,-0.152188
2.557000,-0.152512
2.558000,-0.153159
2.559000,-0.155747
2.560000,-0.164480
2.561000,-0.172244
2.562000,-0.178714
2.563000,-0.181948
2.564000,-0.183566
2.565000,-0.179361
2.566000,-0.172891
2.567000,-0.165451
2.568000,-0.160275
2.569000,-0.157687
2.570000,-0.154129
2.571000,-0.152188
2.572000,-0.151541
2.573000,-0.149924
2.574000,-0.151218
2.575000,-0.151865
2.576000,-0.156394
2.577000,-0.165451
2.578000,-0.172244
2.579000,-0.177743
2.580000,-0.180331
2.581000,-0.179361
2.582000,-0.175155
2.583000,-0.168686
2.584000,-0.160599
2.585000,-0.156394
2.586000,-0.154129
2.587000,-0.151218
2.588000,-0.149277
2.589000,-0.147983
2.590000,-0.148954
2.591000,-0.149277
2.592000,-0.150247
2.593000,-0.156070
2.594000,-0.166098
2.595000,-0.173214
2.596000,-0.176449
2.597000,-0.179037
2.598000,-0.177420
2.599000,-0.170950
2.600000,-0.164157
2.601000,-0.157040
2.602000,-0.154453
2.603000,-0.150894
2.604000,-0.148954
2.605000,-0.146366
2.606000,-0.146042
2.607000,-0.146042
2.608000,-0.147660
2.609000,-0.149600
2.610000,-0.158658
2.611000,-0.166098
2.612000,-0.172567
2.613000,-0.175802
2.614000,0.319768
2.615000,0.210108
2.616000,0.051603
2.617000,-0.134720
2.618000,-0.237910
2.619000,-0.301636
2.620000,-0.340453
2.621000,-0.350157
2.622000,-0.341424
2.623000,-0.309399
2.624000,-0.251173
2.625000,-0.196828
2.626000,-0.080052
2.627000,0.117593
2.628000,0.257983
2.629000,0.315562
2.630000,0.307152
2.631000,0.241162
2.632000,0.132797
2.633000,-0.040912
2.634000,-0.218501
2.635000,-0.300018
2.636000,-0.346923
2.637000,-0.362450
2.638000,-0.355657
2.639000,-0.334954
2.640000,-0.296136
2.641000,-0.239204
2.642000,-0.170303
2.643000,-0.024738
2.644000,0.166439
2.645000,0.291948
2.646000,0.317503
2.647000,0.300035
2.648000,0.221753
2.649000,0.060014
2.650000,-0.103019
2.651000,-0.256672
2.652000,-0.318133
2.653000,-0.356304
2.654000,-0.359862
2.655000,-0.349834
2.656000,-0.318456
2.657000,-0.279639
2.658000,-0.220119
2.659000,-0.140220
2.660000,0.057103
2.661000,0.212049
2.662000,0.311034
2.663000,0.312004
2.664000,0.281274
2.665000,0.176466
2.666000,0.016668
2.667000,-0.170950
2.668000,-0.274140
2.669000,-0.335277
2.670000,-0.363420
2.671000,-0.359862
2.672000,-0.346599
2.673000,-0.311663
2.674000,-0.255055
2.675000,-0.199093
2.676000,-0.081023
2.677000,0.111447
2.678000,0.255719
2.679000,0.315886
2.680000,0.306505
2.681000,0.240839
2.682000,0.132150
2.683000,-0.041558
2.684000,-0.219472
2.685000,-0.302283
2.686000,-0.347570
2.687000,-0.362773
2.688000,-0.355010
2.689000,-0.336571
2.690000,-0.299695
2.691000,-0.240175
2.692000,-0.168362
2.693000,-0.021503
2.694000,0.163851
2.695000,0.291948
2.696000,0.318474
2.697000,0.301006
2.698000,0.222400
2.699000,0.060337
2.700000,-0.104960
2.701000,-0.256672
2.702000,-0.320397
2.703000,-0.356304
2.704000,-0.360509
2.705000,-0.349510
2.706000,-0.319427
2.707000,-0.279316
2.708000,-0.219795
2.709000,-0.140220
2.710000,0.057750
2.711000,0.213019
2.712000,0.311357
2.713000,0.311357
2.714000,0.280950
2.715000,0.176143
2.716000,0.014403
2.717000,-0.172567
2.718000,-0.274787
2.719000,-0.334630
2.720000,-0.363097
2.721000,-0.358244
2.722000,-0.344982
2.723000,-0.311663
2.724000,-0.251173
2.725000,-0.201681
2.726000,-0.078435
2.727000,0.113711
2.728000,0.254101
2.729000,0.315562
2.730000,0.305211
2.731000,0.240839
2.732000,0.132473
2.733000,-0.043499
2.734000,-0.220119
2.735000,-0.303900
2.736000,-0.348864
2.737000,-0.361479
2.738000,-0.354363
2.739000,-0.334307
2.740000,-0.292902
2.741000,-0.239204
2.742000,-0.169009
2.743000,-0.019238
2.744000,0.167732
2.745000,0.294860
2.746000,0.317503
2.747000,0.297448
2.748000,0.217872
2.749000,0.056779
2.750000,-0.107225
2.751000,-0.257642
2.752000,-0.319750
2.753000,-0.357274
2.754000,-0.359538
2.755000,-0.348217
2.756000,-0.319750
2.757000,-0.277375
2.758000,-0.219472
2.759000,-0.140220
2.760000,0.059367
2.761000,0.212373
2.762000,0.312004
2.763000,0.309740
2.764000,0.279980
2.765000,0.174849
2.766000,0.013433
2.767000,-0.174185
2.768000,-0.275434
2.769000,-0.334954
2.770000,-0.362126
2.771000,-0.358568
2.772000,-0.345629
2.773000,-0.310046
2.774000,-0.253437
2.775000,-0.199740
2.776000,-0.077141
2.777000,0.114035
2.778000,0.257336
2.779000,0.316856
2.780000,0.307475
2.781000,0.241162
2.782000,0.129238
2.783000,-0.042852
2.784000,-0.221413
2.785000,-0.300989
2.786000,-0.347893
2.787000,-0.362450
2.788000,-0.353392
2.789000,-0.332366
2.790000,-0.296460
2.791000,-0.238881
2.792000,-0.168686
2.793000,-0.018268
2.794000,0.167085
2.795000,0.292595
2.796000,0.315239
2.797000,0.298094
2.798000,0.222077
2.799000,0.057426
2.800000,-0.108195
2.801000,-0.258289
2.802000,-0.319750
2.803000,-0.358244
2.804000,-0.360185
2.805000,-0.350481
2.806000,-0.319427
2.807000,-0.278345
2.808000,-0.220766
2.809000,-0.138926
2.810000,0.061631
2.811000,0.214637
2.812000,0.311681
2.813000,0.312328
2.814000,0.278039
2.815000,0.174202
2.816000,0.012463
2.817000,-0.175155
2.818000,-0.276081
2.819000,-0.336248
2.820000,-0.363744
2.821000,-0.359862
2.822000,-0.344658
2.823000,-0.309723
2.824000,-0.255378
2.825000,-0.199093
2.826000,-0.074230
2.827000,0.115652
2.828000,0.255719
2.829000,0.315562
2.830000,0.308122
2.831000,0.239221
2.832000,0.126651
2.833000,-0.047381
2.834000,-0.222383
2.835000,-0.303576
2.836000,-0.347893
2.837000,-0.364391
2.838000,-0.355010
2.839000,-0.333983
2.840000,-0.295166
2.841000,-0.238881
2.842000,-0.168362
2.843000,-0.015033
2.844000,0.167732
2.845000,0.294213
2.846000,0.316856
2.847000,0.300682
2.848000,0.222400
2.849000,0.055162
2.850000,-0.111106
2.851000,-0.257966
2.852000,-0.320721
2.853000,-0.356627
2.854000,-0.360509
2.855000,-0.350481
2.856000,-0.319103
2.857000,-0.278022
2.858000,-0.218178
2.859000,-0.138926
2.860000,0.060984
2.861000,0.214960
2.862000,0.311681
2.863000,0.311034
2.864000,-0.317163
2.865000,-0.290637
2.866000,-0.274463
2.867000,-0.261201
2.868000,-0.252467
2.869000,-0.246968
2.870000,-0.241145
2.871000,-0.237263
2.872000,-0.233382
2.873000,-0.231764
2.874000,-0.232088
2.875000,-0.230794
2.876000,-0.234352
2.877000,-0.240822
2.878000,-0.245997
2.879000,-0.248909
2.880000,-0.247615
2.881000,-0.245027
2.882000,-0.238557
2.883000,-0.230470
2.884000,-0.221736
2.885000,-0.216884
2.886000,-0.213973
2.887000,-0.210738
2.888000,-0.207827
2.889000,-0.206209
2.890000,-0.205239
2.891000,-0.206209
2.892000,-0.207503
2.893000,-0.212679
2.894000,-0.221089
2.895000,-0.226912
2.896000,-0.229823
2.897000,-0.230147
2.898000,-0.226588
2.899000,-0.219148
2.900000,-0.211708
2.901000,-0.206209
2.902000,-0.201357
2.903000,-0.198769
2.904000,-0.196181
2.905000,-0.193594
2.906000,-0.192623
2.907000,-0.192623
2.908000,-0.193594
2.909000,-0.195211
2.910000,-0.204268
2.911000,-0.211385
2.912000,-0.216884
2.913000,-0.218825
2.914000,-0.219148
2.915000,-0.215267
2.916000,-0.207827
2.917000,-0.199740
2.918000,-0.194888
2.919000,-0.191329
2.920000,-0.188418
2.921000,-0.186154
2.922000,-0.184213
2.923000,-0.183566
2.924000,-0.184213
2.925000,-0.184860
2.926000,-0.190035
2.927000,-0.198122
2.928000,-0.205239
2.929000,-0.210091
2.930000,-0.211708
2.931000,-0.210415
2.932000,-0.204915
2.933000,-0.198769
2.934000,-0.190682
2.935000,-0.186477
2.936000,-0.183889
2.937000,-0.180978
2.938000,-0.178390
2.939000,-0.178067
2.940000,-0.176773
2.941000,-0.178067
2.942000,-0.179684
2.943000,-0.186154
2.944000,-0.194564
2.945000,-0.201681
2.946000,-0.205239
2.947000,-0.206856
2.948000,-0.203298
2.949000,-0.197152
2.950000,-0.190035
2.951000,-0.183566
2.952000,-0.180331
2.953000,-0.177420
2.954000,-0.174832
2.955000,-0.172891
2.956000,-0.171921
2.957000,-0.171597
2.958000,-0.173214
2.959000,-0.175802
2.960000,-0.184213
2.961000,-0.191653
2.962000,-0.197799
2.963000,-0.200063
2.964000,-0.201357
2.965000,-0.197152
2.966000,-0.190035
2.967000,-0.182595
2.968000,-0.177743
2.969000,-0.174508
2.970000,-0.171274
2.971000,-0.169333
2.972000,-0.167392
2.973000,-0.167392
2.974000,-0.168362
2.975000,-0.169333
2.976000,-0.173538
2.977000,-0.182919
2.978000,-0.189712
2.979000,-0.194888
2.980000,-0.196828
2.981000,-0.196181
2.982000,-0.191006
2.983000,-0.183889
2.984000,-0.177420
2.985000,-0.172891
2.986000,-0.169333
2.987000,-0.166421
2.988000,-0.165127
2.989000,-0.163510
2.990000,-0.163510
2.991000,-0.164480
2.992000,-0.166421
2.993000,-0.172891
2.994000,-0.181301
2.995000,-0.188094
2.996000,-0.191653
2.997000,-0.193917
2.998000,-0.191329
2.999000,-0.184860
3.000000,-0.178067
3.001000,-0.170950
3.002000,-0.168362
3.003000,-0.165451
3.004000,-0.161893
3.005000,-0.161246
3.006000,-0.160599
3.007000,-0.160275
3.008000,-0.161569
3.009000,-0.163834
3.010000,-0.172891
3.011000,-0.180978
3.012000,-0.186801
3.013000,-0.189388
3.014000,-0.190359
3.015000,-0.186801
3.016000,-0.180331
3.017000,-0.172244
3.018000,-0.167715
3.019000,-0.164157
3.020000,-0.161569
3.021000,-0.158981
3.022000,-0.157364
3.023000,-0.157364
3.024000,-0.158011
3.025000,-0.159305
3.026000,-0.163834
3.027000,-0.173214
3.028000,-0.180331
3.029000,-0.184860
3.030000,-0.187448
3.031000,-0.186154
3.032000,-0.182595
3.033000,-0.174185
3.034000,-0.167392
3.035000,-0.164480
3.036000,-0.160275
3.037000,-0.157687
3.038000,-0.156070
3.039000,-0.154776
3.040000,-0.154129
3.041000,-0.155423
3.042000,-0.157364
3.043000,-0.164480
3.044000,-0.172567
3.045000,-0.179037
3.046000,-0.183566
3.047000,-0.185507
3.048000,-0.182919
3.049000,-0.176449
3.050000,-0.169656
3.051000,-0.163510
3.052000,-0.159952
3.053000,-0.157040
3.054000,-0.154776
3.055000,-0.152835
3.056000,-0.151541
3.057000,-0.152188
3.058000,-0.153159
3.059000,-0.156394
3.060000,-0.164804
3.061000,-0.172567
3.062000,-0.178714
3.063000,-0.181948
3.064000,-0.182595
3.065000,-0.179037
3.066000,-0.172567
3.067000,-0.164480
3.068000,-0.160275
3.069000,-0.156717
3.070000,-0.154453
3.071000,-0.151865
3.072000,-0.150571
3.073000,-0.149277
3.074000,-0.150894
3.075000,-0.151541
3.076000,-0.156717
3.077000,-0.165774
3.078000,-0.172891
3.079000,-0.177743
3.080000,-0.180331
3.081000,-0.179037
3.082000,-0.175155
3.083000,-0.168039
3.084000,-0.159952
3.085000,-0.157040
3.086000,-0.154453
3.087000,-0.151218
3.088000,-0.148954
3.089000,-0.147660
3.090000,-0.147983
3.091000,-0.148954
3.092000,-0.150894
3.093000,-0.157687
3.094000,-0.166098
3.095000,-0.173861
3.096000,-0.176773
3.097000,-0.179037
3.098000,-0.176773
3.099000,-0.169980
3.100000,-0.163187
3.101000,-0.157040
3.102000,-0.154129
3.103000,-0.151218
3.104000,-0.149277
3.105000,-0.146366
3.106000,-0.145719
3.107000,-0.146366
3.108000,-0.147336
3.109000,-0.149924
3.110000,-0.159305
3.111000,-0.166745
3.112000,-0.173214
3.113000,-0.176126
3.114000,0.291625
3.115000,0.187788
3.116000,0.023461
3.117000,-0.164157
3.118000,-0.261201
3.119000,-0.319750
3.120000,-0.354363
3.121000,-0.353069
3.122000,-0.341100
3.123000,-0.306811
3.124000,-0.250202
3.125000,-0.193594
3.126000,-0.065496
3.127000,0.126974
3.128000,0.265423
3.129000,0.318474
3.130000,0.305858
3.131000,0.236633
3.132000,0.116299
3.133000,-0.055792
3.134000,-0.227882
3.135000,-0.305841
3.136000,-0.348864
3.137000,-0.364067
3.138000,-0.350481
3.139000,-0.331396
3.140000,-0.292255
3.141000,-0.238234
3.142000,-0.165451
3.143000,-0.008564
3.144000,0.175819
3.145000,0.298418
3.146000,0.315562
3.147000,0.297771
3.148000,0.214637
3.149000,0.047398
3.150000,-0.122105
3.151000,-0.261524
3.152000,-0.323632
3.153000,-0.357597
3.154000,-0.359862
3.155000,-0.348217
3.156000,-0.316839
3.157000,-0.271876
3.158000,-0.218178
3.159000,-0.133427
3.160000,0.070689
3.161000,0.220460
3.162000,0.312328
3.163000,0.309740
3.164000,0.270922
3.165000,0.167085
3.166000,0.002435
3.167000,-0.185183
3.168000,-0.281580
3.169000,-0.336895
3.170000,-0.362773
3.171000,-0.359215
3.172000,-0.343364
3.173000,-0.308429
3.174000,-0.250849
3.175000,-0.194888
3.176000,-0.065496
3.177000,0.126327
3.178000,0.266394
3.179000,0.315886
3.180000,0.303917
3.181000,0.235987
3.182000,0.114035
3.183000,-0.056439
3.184000,-0.229176
3.185000,-0.306811
3.186000,-0.350481
3.187000,-0.361479
3.188000,-0.351775
3.189000,-0.331072
3.190000,-0.294843
3.191000,-0.236293
3.192000,-0.159628
3.193000,-0.001124
3.194000,0.178407
3.195000,0.295830
3.196000,0.314915
3.197000,0.295830
3.198000,0.214313
3.199000,0.046428
3.200000,-0.119840
3.201000,-0.259583
3.202000,-0.323956
3.203000,-0.359862
3.204000,-0.359862
3.205000,-0.347893
3.206000,-0.316839
3.207000,-0.274787
3.208000,-0.217208
3.209000,-0.131162
3.210000,0.073277
3.211000,0.223371
3.212000,0.313621
3.213000,0.310710
3.214000,0.270599
3.215000,0.165468
3.216000,0.004699
3.217000,-0.186477
3.218000,-0.281256
3.219000,-0.335924
3.220000,-0.364391
3.221000,-0.358244
3.222000,-0.342070
3.223000,-0.307782
3.224000,-0.250202
3.225000,-0.193270
3.226000,-0.067113
3.227000,0.127298
3.228000,0.266070
3.229000,0.316856
3.230000,0.305534
3.231000,0.235987
3.232000,0.114682
3.233000,-0.059026
3.234000,-0.229500
3.235000,-0.306811
3.236000,-0.350481
3.237000,-0.361479
3.238000,-0.352745
3.239000,-0.329778
3.240000,-0.289020
3.241000,-0.236293
3.242000,-0.162863
3.243000,-0.003388
3.244000,0.176790
3.245000,0.300359
3.246000,0.315562
3.247000,0.298094
3.248000,0.212373
3.249000,0.044163
3.250000,-0.122428
3.251000,-0.261524
3.252000,-0.324926
3.253000,-0.358244
3.254000,-0.359215
3.255000,-0.347570
3.256000,-0.317486
3.257000,-0.273169
3.258000,-0.217855
3.259000,-0.131809
3.260000,0.072953
3.261000,0.226282
3.262000,0.319444
3.263000,0.309416
3.264000,0.267687
3.265000,0.165468
3.266000,0.000170
3.267000,-0.188418
3.268000,-0.282227
3.269000,-0.337865
3.270000,-0.363097
3.271000,-0.356950
3.272000,-0.342717
3.273000,-0.307782
3.274000,-0.249879
3.275000,-0.193270
3.276000,-0.064525
3.277000,0.128915
3.278000,0.266717
3.279000,0.317180
3.280000,0.303594
3.281000,0.235340
3.282000,0.111124
3.283000,-0.059350
3.284000,-0.231117
3.285000,-0.307135
3.286000,-0.350481
3.287000,-0.362773
3.288000,-0.353069
3.289000,-0.330102
3.290000,-0.292578
3.291000,-0.234999
3.292000,-0.163834
3.293000,-0.001124
3.294000,0.178731
3.295000,0.300035
3.296000,0.314592
3.297000,0.296154
3.298000,0.212373
3.299000,0.042546
3.300000,-0.126957
3.301000,-0.261524
3.302000,-0.323309
3.303000,-0.357921
3.304000,-0.360185
3.305000,-0.348540
3.306000,-0.319427
3.307000,-0.271876
3.308000,-0.215914
3.309000,-0.128898
3.310000,0.075217
3.311000,0.224018
3.312000,0.315239
3.313000,0.313298
3.314000,0.265747
3.315000,0.167085
3.316000,-0.000800
3.317000,-0.188094
3.318000,-0.284168
3.319000,-0.339159
3.320000,-0.363744
3.321000,-0.357921
3.322000,-0.342394
3.323000,-0.306811
3.324000,-0.248909
3.325000,-0.191976
3.326000,-0.062261
3.327000,0.128915
3.328000,0.268981
3.329000,0.316856
3.330000,0.303917
3.331000,0.233075
3.332000,0.109183
3.333000,-0.060644
3.334000,-0.232088
3.335000,-0.307782
3.336000,-0.352098
3.337000,-0.363420
3.338000,-0.354039
3.339000,-0.330425
3.340000,-0.290637
3.341000,-0.236616
3.342000,-0.158658
3.343000,0.004376
3.344000,0.177113
3.345000,0.301976
3.346000,0.314592
3.347000,0.295507
3.348000,0.207844
3.349000,0.042546
3.350000,-0.125986
3.351000,-0.261524
3.352000,-0.324603
3.353000,-0.358244
3.354000,-0.359215
3.355000,-0.348217
3.356000,-0.316516
3.357000,-0.272846
3.358000,-0.213973
3.359000,-0.127927
3.360000,0.077158
3.361000,0.225635
3.362000,0.315886
3.363000,-0.359862
3.364000,-0.303576
3.365000,-0.284491
3.366000,-0.269288
3.367000,-0.256995
3.368000,-0.249232
3.369000,-0.243409
3.370000,-0.238557
3.371000,-0.234999
3.372000,-0.231764
3.373000,-0.229823
3.374000,-0.229823
3.375000,-0.229823
3.376000,-0.233058
3.377000,-0.240175
3.378000,-0.245027
3.379000,-0.246968
3.380000,-0.246968
3.381000,-0.243733
3.382000,-0.236293
3.383000,-0.229176
3.384000,-0.220442
3.385000,-0.216237
3.386000,-0.212355
3.387000,-0.209121
3.388000,-0.206856
3.389000,-0.204915
3.390000,-0.204915
3.391000,-0.205239
3.392000,-0.206856
3.393000,-0.213326
3.394000,-0.220119
3.395000,-0.227235
3.396000,-0.228853
3.397000,-0.228853
3.398000,-0.226265
3.399000,-0.218825
3.400000,-0.211061
3.401000,-0.204268
3.402000,-0.201034
3.403000,-0.197799
3.404000,-0.195211
3.405000,-0.192623
3.406000,-0.191976
3.407000,-0.191976
3.408000,-0.192947
3.409000,-0.195534
3.410000,-0.204592
3.411000,-0.211385
3.412000,-0.216884
3.413000,-0.218501
3.414000,-0.218178
3.415000,-0.215267
3.416000,-0.206856
3.417000,-0.198769
3.418000,-0.194564
3.419000,-0.190359
3.420000,-0.187771
3.421000,-0.185507
3.422000,-0.183566
3.423000,-0.182919
3.424000,-0.183889
3.425000,-0.185183
3.426000,-0.189712
3.427000,-0.198122
3.428000,-0.205562
3.429000,-0.209768
3.430000,-0.211708
3.431000,-0.210091
3.432000,-0.204592
3.433000,-0.197475
3.434000,-0.190035
3.435000,-0.186154
3.436000,-0.183242
3.437000,-0.180654
3.438000,-0.178067
3.439000,-0.177420
3.440000,-0.176773
3.441000,-0.177743
3.442000,-0.179684
3.443000,-0.186477
3.444000,-0.194564
3.445000,-0.201357
3.446000,-0.204915
3.447000,-0.206209
3.448000,-0.202328
3.449000,-0.196505
3.450000,-0.189065
3.451000,-0.183242
3.452000,-0.178714
3.453000,-0.176773
3.454000,-0.174185
3.455000,-0.171921
3.456000,-0.171274
3.457000,-0.172244
3.458000,-0.172567
3.459000,-0.175802
3.460000,-0.184860
3.461000,-0.191976
3.462000,-0.197152
3.463000,-0.201034
3.464000,-0.200387
3.465000,-0.196828
3.466000,-0.190035
3.467000,-0.180331
3.468000,-0.177096
3.469000,-0.174832
3.470000,-0.170950
3.471000,-0.169656
3.472000,-0.167715
3.473000,-0.167068
3.474000,-0.167392
3.475000,-0.169333
3.476000,-0.174508
3.477000,-0.182919
3.478000,-0.190359
3.479000,-0.194564
3.480000,-0.197152
3.481000,-0.195211
3.482000,-0.190359
3.483000,-0.183242
3.484000,-0.176126
3.485000,-0.172244
3.486000,-0.169333
3.487000,-0.167068
3.488000,-0.164480
3.489000,-0.163510
3.490000,-0.163187
3.491000,-0.164480
3.492000,-0.166421
3.493000,-0.173538
3.494000,-0.181625
3.495000,-0.189065
3.496000,-0.191653
3.497000,-0.193917
3.498000,-0.191329
3.499000,-0.184213
3.500000,-0.176773
3.501000,-0.171597
3.502000,-0.167715
3.503000,-0.164804
3.504000,-0.162863
3.505000,-0.160275
3.506000,-0.160275
3.507000,-0.159628
3.508000,-0.160922
3.509000,-0.164480
3.510000,-0.173861
3.511000,-0.180978
3.512000,-0.186801
3.513000,-0.189388
3.514000,-0.188741
3.515000,-0.185830
3.516000,-0.179361
3.517000,-0.170303
3.518000,-0.167068
3.519000,-0.163834
3.520000,-0.160922
3.521000,-0.158658
3.522000,-0.157364
3.523000,-0.157364
3.524000,-0.158011
3.525000,-0.159305
3.526000,-0.164804
3.527000,-0.172891
3.528000,-0.180331
3.529000,-0.185507
3.530000,-0.187448
3.531000,-0.186154
3.532000,-0.180978
3.533000,-0.174185
3.534000,-0.166745
3.535000,-0.162863
3.536000,-0.160275
3.537000,-0.157364
3.538000,-0.155423
3.539000,-0.154776
3.540000,-0.154129
3.541000,-0.155747
3.542000,-0.158011
3.543000,-0.164804
3.544000,-0.173214
3.545000,-0.180007
3.546000,-0.183889
3.547000,-0.185507
3.548000,-0.182272
3.549000,-0.175802
3.550000,-0.169009
3.551000,-0.163187
3.552000,-0.160275
3.553000,-0.156394
3.554000,-0.155100
3.555000,-0.152188
3.556000,-0.151865
3.557000,-0.152512
3.558000,-0.153482
3.559000,-0.156394
3.560000,-0.165451
3.561000,-0.173214
3.562000,-0.179037
3.563000,-0.181625
3.564000,-0.182272
3.565000,-0.178390
3.566000,-0.171921
3.567000,-0.163834
3.568000,-0.159305
3.569000,-0.156717
3.570000,-0.153806
3.571000,-0.150894
3.572000,-0.149600
3.573000,-0.149924
3.574000,-0.150894
3.575000,-0.151865
3.576000,-0.157040
3.577000,-0.166098
3.578000,-0.173214
3.579000,-0.177743
3.580000,-0.180654
3.581000,-0.179037
3.582000,-0.174185
3.583000,-0.166745
3.584000,-0.159952
3.585000,-0.156394
3.586000,-0.153806
3.587000,-0.150894
3.588000,-0.148954
3.589000,-0.148307
3.590000,-0.147660
3.591000,-0.148630
3.592000,-0.151218
3.593000,-0.158011
3.594000,-0.166745
3.595000,-0.173538
3.596000,-0.177420
3.597000,-0.179037
3.598000,-0.176126
3.599000,-0.169656
3.600000,-0.162540
3.601000,-0.156717
3.602000,-0.153806
3.603000,-0.150894
3.604000,-0.147660
3.605000,-0.146366
3.606000,-0.145395
3.607000,-0.146366
3.608000,-0.147013
3.609000,-0.150571
3.610000,-0.159305
3.611000,-0.167068
3.612000,-0.173214
3.613000,0.336265
3.614000,0.271569
3.615000,0.169997
3.616000,-0.000800
3.617000,-0.185507
3.618000,-0.277051
3.619000,-0.330425
3.620000,-0.357921
3.621000,-0.355657
3.622000,-0.340130
3.623000,-0.302930
3.624000,-0.246321
3.625000,-0.189388
3.626000,-0.055145
3.627000,0.137325
3.628000,0.275774
3.629000,0.317180
3.630000,0.303594
3.631000,0.232105
3.632000,0.097214
3.633000,-0.068731
3.634000,-0.238881
3.635000,-0.310370
3.636000,-0.352422
3.637000,-0.361479
3.638000,-0.351775
3.639000,-0.326543
3.640000,-0.289343
3.641000,-0.230470
3.642000,-0.156070
3.643000,0.016344
3.644000,0.186818
3.645000,0.302623
3.646000,0.315239
3.647000,0.294860
3.648000,0.202345
3.649000,0.037694
3.650000,-0.136661
3.651000,-0.264436
3.652000,-0.326543
3.653000,-0.360185
3.654000,-0.361156
3.655000,-0.346599
3.656000,-0.315869
3.657000,-0.268964
3.658000,-0.213002
3.659000,-0.116282
3.660000,0.083951
3.661000,0.233075
3.662000,0.316209
3.663000,0.311681
3.664000,0.258954
3.665000,0.158675
3.666000,-0.012122
3.667000,-0.197475
3.668000,-0.289020
3.669000,-0.340453
3.670000,-0.361156
3.671000,-0.356304
3.672000,-0.341100
3.673000,-0.304223
3.674000,-0.248262
3.675000,-0.187124
3.676000,-0.055792
3.677000,0.139913
3.678000,0.274157
3.679000,0.316533
3.680000,0.303594
3.681000,0.232105
3.682000,0.096567
3.683000,-0.069054
3.684000,-0.240498
3.685000,-0.311016
3.686000,-0.351451
3.687000,-0.359862
3.688000,-0.352422
3.689000,-0.326220
3.690000,-0.289990
3.691000,-0.231117
3.692000,-0.155100
3.693000,0.015374
3.694000,0.187788
3.695000,0.301976
3.696000,0.314268
3.697000,0.294213
3.698000,0.202021
3.699000,0.037047
3.700000,-0.138602
3.701000,-0.265406
3.702000,-0.325573
3.703000,-0.360832
3.704000,-0.358244
3.705000,-0.346923
3.706000,-0.314575
3.707000,-0.267670
3.708000,-0.213002
3.709000,-0.109813
3.710000,0.089127
3.711000,0.236633
3.712000,0.312975
3.713000,0.309740
3.714000,0.256689
3.715000,0.158352
3.716000,-0.011798
3.717000,-0.198769
3.718000,-0.289020
3.719000,-0.339806
3.720000,-0.362773
3.721000,-0.357597
3.722000,-0.340777
3.723000,-0.304547
3.724000,-0.247938
3.725000,-0.186801
3.726000,-0.056115
3.727000,0.142825
3.728000,0.276745
3.729000,0.314592
3.730000,0.301006
3.731000,0.230487
3.732000,0.094950
3.733000,-0.071642
3.734000,-0.242439
3.735000,-0.309399
3.736000,-0.353392
3.737000,-0.360509
3.738000,-0.351775
3.739000,-0.326867
3.740000,-0.289020
3.741000,-0.229823
3.742000,-0.153806
3.743000,0.020873
3.744000,0.190052
3.745000,0.302300
3.746000,0.314268
3.747000,0.295507
3.748000,0.198139
3.749000,0.034136
3.750000,-0.139896
3.751000,-0.264759
3.752000,-0.329131
3.753000,-0.360832
3.754000,-0.358244
3.755000,-0.347893
3.756000,-0.314898
3.757000,-0.265082
3.758000,-0.212679
3.759000,-0.117253
3.760000,0.085245
3.761000,0.235987
3.762000,0.316209
3.763000,0.308769
3.764000,0.257013
3.765000,0.155440
3.766000,-0.015680
3.767000,-0.200710
3.768000,-0.292578
3.769000,-0.344335
3.770000,-0.364067
3.771000,-0.355010
3.772000,-0.339483
3.773000,-0.304223
3.774000,-0.244703
3.775000,-0.186477
3.776000,-0.052233
3.777000,0.140884
3.778000,0.276421
3.779000,0.318150
3.780000,0.304888
3.781000,0.232752
3.782000,0.092038
3.783000,-0.072612
3.784000,-0.243409
3.785000,-0.310370
3.786000,-0.352422
3.787000,-0.361803
3.788000,-0.352745
3.789000,-0.326543
3.790000,-0.287079
3.791000,-0.230470
3.792000,-0.153482
3.793000,0.021520
3.794000,0.189729
3.795000,0.301653
3.796000,0.314592
3.797000,0.293566
3.798000,0.198139
3.799000,0.035430
3.800000,-0.141837
3.801000,-0.265729
3.802000,-0.325250
3.803000,-0.359862
3.804000,-0.358244
3.805000,-0.347570
3.806000,-0.314575
3.807000,-0.266053
3.808000,-0.209444
3.809000,-0.111106
3.810000,0.088157
3.811000,0.238251
3.812000,0.316856
3.813000,0.310063
3.814000,0.254748
3.815000,0.156087
3.816000,-0.015680
3.817000,-0.200387
3.818000,-0.290637
3.819000,-0.341747
3.820000,-0.362126
3.821000,-0.355333
3.822000,-0.340130
3.823000,-0.301636
3.824000,-0.246644
3.825000,-0.184536
3.826000,-0.046411
3.827000,0.144765
3.828000,0.277068
3.829000,0.315562
3.830000,0.301976
3.831000,0.230164
3.832000,0.090421
3.833000,-0.072289
3.834000,-0.245674
3.835000,-0.310693
3.836000,-0.355333
3.837000,-0.361156
3.838000,-0.352098
3.839000,-0.324279
3.840000,-0.288049
3.841000,-0.228206
3.842000,-0.152188
3.843000,0.025725
3.844000,0.190376
3.845000,0.302300
3.846000,0.315239
3.847000,0.291625
3.848000,0.197493
3.849000,0.032518
3.850000,-0.143778
3.851000,-0.265082
3.852000,-0.329778
3.853000,-0.359538
3.854000,-0.358891
3.855000,-0.346599
3.856000,-0.315545
3.857000,-0.264759
3.858000,-0.211385
3.859000,-0.108195
3.860000,0.091068
3.861000,0.240192
3.862000,0.312651
3.863000,-0.320721
3.864000,-0.293872
3.865000,-0.279639
3.866000,-0.265729
3.867000,-0.253761
3.868000,-0.246968
3.869000,-0.241145
3.870000,-0.236940
3.871000,-0.232735
3.872000,-0.230147
3.873000,-0.228529
3.874000,-0.228206
3.875000,-0.228206
3.876000,-0.232735
3.877000,-0.239528
3.878000,-0.244380
3.879000,-0.246644
3.880000,-0.246321
3.881000,-0.242762
3.882000,-0.234999
3.883000,-0.227882
3.884000,-0.219472
3.885000,-0.214296
3.886000,-0.211061
3.887000,-0.208797
3.888000,-0.205562
3.889000,-0.204915
3.890000,-0.204268
3.891000,-0.204268
3.892000,-0.206533
3.893000,-0.213649
3.894000,-0.220766
3.895000,-0.226588
3.896000,-0.229176
3.897000,-0.229176
3.898000,-0.225295
3.899000,-0.217855
3.900000,-0.209444
3.901000,-0.204268
3.902000,-0.200710
3.903000,-0.197152
3.904000,-0.194564
3.905000,-0.192300
3.906000,-0.191329
3.907000,-0.191976
3.908000,-0.192300
3.909000,-0.195858
3.910000,-0.204592
3.911000,-0.211385
3.912000,-0.216237
3.913000,-0.219795
3.914000,-0.217208
3.915000,-0.213326
3.916000,-0.205886
3.917000,-0.197475
3.918000,-0.193594
3.919000,-0.190359
3.920000,-0.187771
3.921000,-0.185183
3.922000,-0.183566
3.923000,-0.182595
3.924000,-0.183566
3.925000,-0.185507
3.926000,-0.190682
3.927000,-0.198769
3.928000,-0.205562
3.929000,-0.209768
3.930000,-0.211708
3.931000,-0.209444
3.932000,-0.203621
3.933000,-0.196828
3.934000,-0.188741
3.935000,-0.185830
3.936000,-0.182919
3.937000,-0.179684
3.938000,-0.177743
3.939000,-0.176773
3.940000,-0.176449
3.941000,-0.177743
3.942000,-0.180331
3.943000,-0.187124
3.944000,-0.194888
3.945000,-0.201681
3.946000,-0.204915
3.947000,-0.206533
3.948000,-0.202328
3.949000,-0.195858
3.950000,-0.188094
3.951000,-0.182595
3.952000,-0.179037
3.953000,-0.176449
3.954000,-0.173861
3.955000,-0.171597
3.956000,-0.171274
3.957000,-0.172244
3.958000,-0.173214
3.959000,-0.176773
3.960000,-0.185507
3.961000,-0.192947
3.962000,-0.197799
3.963000,-0.200710
3.964000,-0.200063
3.965000,-0.195858
3.966000,-0.188741
3.967000,-0.180978
3.968000,-0.176773
3.969000,-0.173861
3.970000,-0.170950
3.971000,-0.168686
3.972000,-0.167068
3.973000,-0.166421
3.974000,-0.167392
3.975000,-0.169656
3.976000,-0.174832
3.977000,-0.183566
3.978000,-0.191006
3.979000,-0.194564
3.980000,-0.196828
3.981000,-0.195211
3.982000,-0.189712
3.983000,-0.182272
3.984000,-0.175155
3.985000,-0.172567
3.986000,-0.169009
3.987000,-0.166745
3.988000,-0.164157
3.989000,-0.163510
3.990000,-0.163187
3.991000,-0.164480
3.992000,-0.167068
3.993000,-0.174508
3.994000,-0.182272
3.995000,-0.188741
3.996000,-0.192300
3.997000,-0.193917
3.998000,-0.190035
3.999000,-0.183889
4.000000,-0.176126
4.001000,-0.170627
4.002000,-0.167715
4.003000,-0.164480
4.004000,-0.162216
4.005000,-0.160275
4.006000,-0.159628
4.007000,-0.160275
4.008000,-0.161569
4.009000,-0.165451
4.010000,-0.173861
4.011000,-0.181301
4.012000,-0.186801
4.013000,-0.189712
4.014000,-0.188741
4.015000,-0.185507
4.016000,-0.178390
4.017000,-0.171597
4.018000,-0.167068
4.019000,-0.163834
4.020000,-0.160922
4.021000,-0.159305
4.022000,-0.157040
4.023000,-0.157364
4.024000,-0.158011
4.025000,-0.159305
4.026000,-0.164480
4.027000,-0.174185
4.028000,-0.181301
4.029000,-0.185183
4.030000,-0.187771
4.031000,-0.185507
4.032000,-0.180654
4.033000,-0.173861
4.034000,-0.166098
4.035000,-0.162540
4.036000,-0.159952
4.037000,-0.158011
4.038000,-0.154776
4.039000,-0.155100
4.040000,-0.154453
4.041000,-0.155423
4.042000,-0.157364
4.043000,-0.165774
4.044000,-0.173538
4.045000,-0.180007
4.046000,-0.183889
4.047000,-0.184860
4.048000,-0.181948
4.049000,-0.175479
4.050000,-0.168039
4.051000,-0.162863
4.052000,-0.159305
4.053000,-0.156070
4.054000,-0.154453
4.055000,-0.152188
4.056000,-0.151541
4.057000,-0.152512
4.058000,-0.153482
4.059000,-0.157364
4.060000,-0.166421
4.061000,-0.173861
4.062000,-0.179361
4.063000,-0.182272
4.064000,-0.181625
4.065000,-0.178390
4.066000,-0.171274
4.067000,-0.162540
4.068000,-0.159305
4.069000,-0.156717
4.070000,-0.152835
4.071000,-0.150571
4.072000,-0.149924
4.073000,-0.149600
4.074000,-0.150894
4.075000,-0.152188
4.076000,-0.158334
4.077000,-0.166745
4.078000,-0.174185
4.079000,-0.178390
4.080000,-0.180654
4.081000,-0.178390
4.082000,-0.173861
4.083000,-0.166745
4.084000,-0.159305
4.085000,-0.156394
4.086000,-0.153482
4.087000,-0.150247
4.088000,-0.148630
4.089000,-0.147660
4.090000,-0.147336
4.091000,-0.148954
4.092000,-0.151218
4.093000,-0.158981
4.094000,-0.166745
4.095000,-0.173861
4.096000,-0.177096
4.097000,-0.179037
4.098000,-0.176126
4.099000,-0.168686
4.100000,-0.161569
4.101000,-0.156070
4.102000,-0.152835
4.103000,-0.149924
4.104000,-0.147983
4.105000,-0.145395
4.106000,-0.145395
4.107000,-0.146689
4.108000,-0.147336
4.109000,-0.151541
4.110000,-0.160275
4.111000,-0.168039
4.112000,-0.173861
4.113000,0.319121
4.114000,0.256366
4.115000,0.154146
4.116000,-0.018915
4.117000,-0.202651
4.118000,-0.289667
4.119000,-0.339806
4.120000,-0.358568
4.121000,-0.355980
4.122000,-0.338189
4.123000,-0.300665
4.124000,-0.242115
4.125000,-0.180331
4.126000,-0.040588
4.127000,0.150912
4.128000,0.282244
4.129000,0.317827
4.130000,0.299712
4.131000,0.228870
4.132000,0.078452
4.133000,-0.083934
4.134000,-0.250849
4.135000,-0.313928
4.136000,-0.355980
4.137000,-0.360832
4.138000,-0.351128
4.139000,-0.323632
4.140000,-0.283844
4.141000,-0.221736
4.142000,-0.145072
4.143000,0.037370
4.144000,0.198786
4.145000,0.306181
4.146000,0.314268
4.147000,0.290654
4.148000,0.190052
4.149000,0.027990
4.150000,-0.153482
4.151000,-0.268964
4.152000,-0.332043
4.153000,-0.361803
4.154000,-0.358568
4.155000,-0.345952
4.156000,-0.314251
4.157000,-0.260877
4.158000,-0.207180
4.159000,-0.098814
4.160000,0.098831
4.161000,0.246014
4.162000,0.316209
4.163000,0.307799
4.164000,0.249249
4.165000,0.148000
4.166000,-0.027325
4.167000,-0.209768
4.168000,-0.294196
4.169000,-0.344011
4.170000,-0.362773
4.171000,-0.354039
4.172000,-0.339159
4.173000,-0.299048
4.174000,-0.245997
4.175000,-0.179361
4.176000,-0.039941
4.177000,0.151558
4.178000,0.283538
4.179000,0.317180
4.180000,0.299065
4.181000,0.224341
4.182000,0.076511
4.183000,-0.085552
4.184000,-0.250202
4.185000,-0.314575
4.186000,-0.353392
4.187000,-0.360509
4.188000,-0.352098
4.189000,-0.322662
4.190000,-0.283521
4.191000,-0.226588
4.192000,-0.149277
4.193000,0.040605
4.194000,0.199433
4.195000,0.303917
4.196000,0.312651
4.197000,0.289361
4.198000,0.186818
4.199000,0.025402
4.200000,-0.154129
4.201000,-0.269288
4.202000,-0.330425
4.203000,-0.360509
4.204000,-0.359538
4.205000,-0.346599
4.206000,-0.312310
4.207000,-0.260877
4.208000,-0.206209
4.209000,-0.098491
4.210000,0.095920
4.211000,0.244720
4.212000,0.315239
4.213000,0.308446
4.214000,0.248602
4.215000,0.146383
4.216000,-0.030237
4.217000,-0.210415
4.218000,-0.294843
4.219000,-0.344982
4.220000,-0.360832
4.221000,-0.355010
4.222000,-0.337218
4.223000,-0.300342
4.224000,-0.245027
4.225000,-0.177096
4.226000,-0.043176
4.227000,0.152852
4.228000,0.283214
4.229000,0.316533
4.230000,0.303594
4.231000,0.227253
4.232000,0.077158
4.233000,-0.086522
4.234000,-0.250526
4.235000,-0.315869
4.236000,-0.355980
4.237000,-0.359862
4.238000,-0.349834
4.239000,-0.320397
4.240000,-0.282874
4.241000,-0.221089
4.242000,-0.146366
4.243000,0.040929
4.244000,0.202345
4.245000,0.303594
4.246000,0.314592
4.247000,0.288067
4.248000,0.190376
4.249000,0.025402
4.250000,-0.156717
4.251000,-0.268964
4.252000,-0.331072
4.253000,-0.359862
4.254000,-0.359538
4.255000,-0.346923
4.256000,-0.313604
4.257000,-0.261524
4.258000,-0.206533
4.259000,-0.095579
4.260000,0.103037
4.261000,0.246014
4.262000,0.316209
4.263000,0.308446
4.264000,0.247308
4.265000,0.146059
4.266000,-0.031854
4.267000,-0.211385
4.268000,-0.293872
4.269000,-0.344658
4.270000,-0.363420
4.271000,-0.356304
4.272000,-0.339483
4.273000,-0.298724
4.274000,-0.244056
4.275000,-0.177743
4.276000,-0.038000
4.277000,0.153499
4.278000,0.284508
4.279000,0.319121
4.280000,0.302623
4.281000,0.224988
4.282000,0.072630
4.283000,-0.087816
4.284000,-0.252143
4.285000,-0.316516
4.286000,-0.353716
4.287000,-0.358891
4.288000,-0.352422
4.289000,-0.322338
4.290000,-0.283521
4.291000,-0.222383
4.292000,-0.145395
4.293000,0.044163
4.294000,0.204933
4.295000,0.304564
4.296000,0.313945
4.297000,0.289684
4.298000,0.187788
4.299000,0.023137
4.300000,-0.158334
4.301000,-0.269935
4.302000,-0.329131
4.303000,-0.361156
4.304000,-0.358568
4.305000,-0.344982
4.306000,-0.312634
4.307000,-0.259907
4.308000,-0.205239
4.309000,-0.092021
4.310000,0.102713
4.311000,0.248279
4.312000,0.315886
4.313000,0.308446
4.314000,0.246985
4.315000,0.144442
4.316000,-0.032178
4.317000,-0.211385
4.318000,-0.296136
4.319000,-0.344658
4.320000,-0.361803
4.321000,-0.356304
4.322000,-0.338189
4.323000,-0.300342
4.324000,-0.243086
4.325000,-0.177420
4.326000,-0.035736
4.327000,0.157381
4.328000,0.283861
4.329000,0.318474
4.330000,0.300359
4.331000,0.226929
4.332000,0.069718
4.333000,-0.089433
4.334000,-0.251173
4.335000,-0.315222
4.336000,-0.354363
4.337000,-0.358891
4.338000,-0.350804
4.339000,-0.323309
4.340000,-0.281580
4.341000,-0.224971
4.342000,-0.146366
4.343000,0.045134
4.344000,0.202021
4.345000,0.305858
4.346000,0.315562
4.347000,0.288390
4.348000,0.188112
4.349000,0.024755
4.350000,-0.160275
4.351000,-0.270258
4.352000,-0.329778
4.353000,-0.361479
4.354000,-0.359538
4.355000,-0.344982
4.356000,-0.313604
4.357000,-0.259583
4.358000,-0.204268
4.359000,-0.092021
4.360000,0.104654
4.361000,0.250220
4.362000,-0.391563
4.363000,-0.306811
4.364000,-0.288049
4.365000,-0.274787
4.366000,-0.261848
4.367000,-0.250526
4.368000,-0.244380
4.369000,-0.239204
4.370000,-0.234352
4.371000,-0.231117
4.372000,-0.228206
4.373000,-0.226912
4.374000,-0.226912
4.375000,-0.227235
4.376000,-0.231764
4.377000,-0.238234
4.378000,-0.243733
4.379000,-0.245997
4.380000,-0.244703
4.381000,-0.241145
4.382000,-0.233382
4.383000,-0.225942
4.384000,-0.218178
4.385000,-0.213973
4.386000,-0.210738
4.387000,-0.207827
4.388000,-0.205239
4.389000,-0.203945
4.390000,-0.203298
4.391000,-0.204268
4.392000,-0.206533
4.393000,-0.213973
4.394000,-0.220766
4.395000,-0.226265
4.396000,-0.229500
4.397000,-0.229500
4.398000,-0.224324
4.399000,-0.216561
4.400000,-0.208797
4.401000,-0.203298
4.402000,-0.199740
4.403000,-0.196828
4.404000,-0.193917
4.405000,-0.191976
4.406000,-0.191329
4.407000,-0.191329
4.408000,-0.192623
4.409000,-0.196828
4.410000,-0.204915
4.411000,-0.212032
4.412000,-0.215914
4.413000,-0.218501
4.414000,-0.216884
4.415000,-0.212355
4.416000,-0.205239
4.417000,-0.196828
4.418000,-0.192947
4.419000,-0.190359
4.420000,-0.187124
4.421000,-0.184536
4.422000,-0.182919
4.423000,-0.182595
4.424000,-0.182919
4.425000,-0.185507
4.426000,-0.190682
4.427000,-0.199093
4.428000,-0.205562
4.429000,-0.209768
4.430000,-0.211061
4.431000,-0.208797
4.432000,-0.202328
4.433000,-0.194888
4.434000,-0.188741
4.435000,-0.185183
4.436000,-0.181948
4.437000,-0.179361
4.438000,-0.177420
4.439000,-0.176449
4.440000,-0.176773
4.441000,-0.177096
4.442000,-0.179037
4.443000,-0.188094
4.444000,-0.195534
4.445000,-0.201681
4.446000,-0.203945
4.447000,-0.205562
4.448000,-0.202004
4.449000,-0.195534
4.450000,-0.186801
4.451000,-0.182272
4.452000,-0.178714
4.453000,-0.175479
4.454000,-0.173538
4.455000,-0.171921
4.456000,-0.171274
4.457000,-0.171921
4.458000,-0.172891
4.459000,-0.177096
4.460000,-0.185830
4.461000,-0.192947
4.462000,-0.197799
4.463000,-0.200387
4.464000,-0.199416
4.465000,-0.195534
4.466000,-0.188094
4.467000,-0.180331
4.468000,-0.176126
4.469000,-0.173214
4.470000,-0.170950
4.471000,-0.168686
4.472000,-0.167068
4.473000,-0.166745
4.474000,-0.167715
4.475000,-0.169333
4.476000,-0.174832
4.477000,-0.183889
4.478000,-0.191329
4.479000,-0.194564
4.480000,-0.195858
4.481000,-0.195211
4.482000,-0.188094
4.483000,-0.181625
4.484000,-0.175155
4.485000,-0.171274
4.486000,-0.168686
4.487000,-0.166098
4.488000,-0.164480
4.489000,-0.162863
4.490000,-0.162863
4.491000,-0.164480
4.492000,-0.167068
4.493000,-0.174832
4.494000,-0.182595
4.495000,-0.188741
4.496000,-0.192623
4.497000,-0.193594
4.498000,-0.189388
4.499000,-0.183566
4.500000,-0.175479
4.501000,-0.170303
4.502000,-0.167392
4.503000,-0.163834
4.504000,-0.161893
4.505000,-0.160275
4.506000,-0.159628
4.507000,-0.160599
4.508000,-0.161893
4.509000,-0.166098
4.510000,-0.174508
4.511000,-0.181948
4.512000,-0.187124
4.513000,-0.189388
4.514000,-0.189065
4.515000,-0.185183
4.516000,-0.177743
4.517000,-0.170303
4.518000,-0.166098
4.519000,-0.163510
4.520000,-0.160599
4.521000,-0.158334
4.522000,-0.157040
4.523000,-0.157040
4.524000,-0.158011
4.525000,-0.159305
4.526000,-0.165451
4.527000,-0.174185
4.528000,-0.181625
4.529000,-0.185183
4.530000,-0.186801
4.531000,-0.186154
4.532000,-0.178714
4.533000,-0.172244
4.534000,-0.166098
4.535000,-0.161893
4.536000,-0.159628
4.537000,-0.157040
4.538000,-0.154453
4.539000,-0.154129
4.540000,-0.154129
4.541000,-0.155423
4.542000,-0.158011
4.543000,-0.167068
4.544000,-0.174508
4.545000,-0.180978
4.546000,-0.183889
4.547000,-0.184536
4.548000,-0.181301
4.549000,-0.175155
4.550000,-0.167068
4.551000,-0.162216
4.552000,-0.158334
4.553000,-0.155747
4.554000,-0.153482
4.555000,-0.152188
4.556000,-0.151865
4.557000,-0.152512
4.558000,-0.153806
4.559000,-0.158011
4.560000,-0.167068
4.561000,-0.174185
4.562000,-0.179361
4.563000,-0.181948
4.564000,-0.181301
4.565000,-0.177420
4.566000,-0.170627
4.567000,-0.162863
4.568000,-0.158658
4.569000,-0.156070
4.570000,-0.153482
4.571000,-0.150571
4.572000,-0.149600
4.573000,-0.149600
4.574000,-0.150571
4.575000,-0.152512
4.576000,-0.158011
4.577000,-0.167068
4.578000,-0.174508
4.579000,-0.178067
4.580000,-0.180654
4.581000,-0.178714
4.582000,-0.171921
4.583000,-0.164804
4.584000,-0.158334
4.585000,-0.155747
4.586000,-0.153159
4.587000,-0.150247
4.588000,-0.147983
4.589000,-0.147660
4.590000,-0.147336
4.591000,-0.148954
4.592000,-0.151865
4.593000,-0.159952
4.594000,-0.167392
4.595000,-0.174185
4.596000,-0.177420
4.597000,-0.178390
4.598000,-0.175155
4.599000,-0.169333
4.600000,-0.160599
4.601000,-0.155747
4.602000,-0.153482
4.603000,-0.150571
4.604000,-0.148307
4.605000,-0.146042
4.606000,-0.144748
4.607000,-0.146689
4.608000,-0.147660
4.609000,-0.152512
4.610000,-0.160922
4.611000,-0.168686
4.612000,0.347910
4.613000,0.312975
4.614000,0.246985
4.615000,0.138619
4.616000,-0.036059
4.617000,-0.214620
4.618000,-0.296136
4.619000,-0.341747
4.620000,-0.363420
4.621000,-0.354363
4.622000,-0.334954
4.623000,-0.296136
4.624000,-0.241468
4.625000,-0.171921
4.626000,-0.024414
4.627000,0.164498
4.628000,0.291625
4.629000,0.317180
4.630000,0.300359
4.631000,0.224018
4.632000,0.063896
4.633000,-0.100108
4.634000,-0.255378
4.635000,-0.319103
4.636000,-0.355333
4.637000,-0.358891
4.638000,-0.350481
4.639000,-0.321044
4.640000,-0.279639
4.641000,-0.222060
4.642000,-0.141513
4.643000,0.055809
4.644000,0.209461
4.645000,0.311034
4.646000,0.312651
4.647000,0.282891
4.648000,0.180672
4.649000,0.017315
4.650000,-0.168686
4.651000,-0.278345
4.652000,-0.334630
4.653000,-0.360509
4.654000,-0.360832
4.655000,-0.344658
4.656000,-0.311340
4.657000,-0.256025
4.658000,-0.200063
4.659000,-0.082964
4.660000,0.110800
4.661000,0.255072
4.662000,0.314268
4.663000,0.308122
4.664000,0.241486
4.665000,0.134414
4.666000,-0.041558
4.667000,-0.218178
4.668000,-0.299048
4.669000,-0.345629
4.670000,-0.362126
4.671000,-0.355980
4.672000,-0.335924
4.673000,-0.296460
4.674000,-0.238557
4.675000,-0.170627
4.676000,-0.024091
4.677000,0.164498
4.678000,0.291301
4.679000,0.316856
4.680000,0.300035
4.681000,0.222400
4.682000,0.059043
4.683000,-0.101726
4.684000,-0.256995
4.685000,-0.317163
4.686000,-0.359862
4.687000,-0.357921
4.688000,-0.351128
4.689000,-0.321044
4.690000,-0.279962
4.691000,-0.220442
4.692000,-0.143778
4.693000,0.054838
4.694000,0.211402
4.695000,0.310387
4.696000,0.312004
4.697000,0.281921
4.698000,0.178407
4.699000,0.018285
4.700000,-0.170627
4.701000,-0.274140
4.702000,-0.332366
4.703000,-0.363097
4.704000,-0.358244
4.705000,-0.343688
4.706000,-0.309076
4.707000,-0.257319
4.708000,-0.201357
4.709000,-0.079406
4.710000,0.111447
4.711000,0.254101
4.712000,0.315886
4.713000,0.306181
4.714000,0.242780
4.715000,0.131503
4.716000,-0.043176
4.717000,-0.218501
4.718000,-0.300989
4.719000,-0.346276
4.720000,-0.362773
4.721000,-0.354686
4.722000,-0.335277
4.723000,-0.295166
4.724000,-0.239528
4.725000,-0.169980
4.726000,-0.024738
4.727000,0.165145
4.728000,0.291625
4.729000,0.316856
4.730000,0.300035
4.731000,0.219813
4.732000,0.061631
4.733000,-0.103019
4.734000,-0.256025
4.735000,-0.319427
4.736000,-0.355333
4.737000,-0.357921
4.738000,-0.350481
4.739000,-0.321368
4.740000,-0.280609
4.741000,-0.219795
4.742000,-0.139896
4.743000,0.055162
4.744000,0.209138
4.745000,0.311357
4.746000,0.311357
4.747000,0.279333
4.748000,0.176466
4.749000,0.016344
4.750000,-0.173214
4.751000,-0.276081
4.752000,-0.333983
4.753000,-0.362773
4.754000,-0.358568
4.755000,-0.343688
4.756000,-0.311340
4.757000,-0.255055
4.758000,-0.198769
4.759000,-0.077465
4.760000,0.116299
4.761000,0.255719
4.762000,0.316209
4.763000,0.307475
4.764000,0.240515
4.765000,0.131826
4.766000,-0.045440
4.767000,-0.219795
4.768000,-0.301636
4.769000,-0.346599
4.770000,-0.361803
4.771000,-0.355333
4.772000,-0.335924
4.773000,-0.294519
4.774000,-0.240822
4.775000,-0.169656
4.776000,-0.025385
4.777000,0.165792
4.778000,0.291625
4.779000,0.316209
4.780000,0.300682
4.781000,0.220136
4.782000,0.060984
4.783000,-0.105607
4.784000,-0.257319
4.785000,-0.318456
4.786000,-0.355657
4.787000,-0.358244
4.788000,-0.350481
4.789000,-0.321044
4.790000,-0.284168
4.791000,-0.220119
4.792000,-0.139249
4.793000,0.059690
4.794000,0.213019
4.795000,0.310387
4.796000,0.312004
4.797000,0.279980
4.798000,0.175819
4.799000,0.013756
4.800000,-0.174832
4.801000,-0.275757
4.802000,-0.333660
4.803000,-0.363097
4.804000,-0.358244
4.805000,-0.345305
4.806000,-0.310370
4.807000,-0.255378
4.808000,-0.197152
4.809000,-0.080052
4.810000,0.115329
4.811000,0.256042
4.812000,0.314592
4.813000,0.304888
4.814000,0.242133
4.815000,0.130532
4.816000,-0.045764
4.817000,-0.219795
4.818000,-0.300018
4.819000,-0.346599
4.820000,-0.362773
4.821000,-0.355010
4.822000,-0.333337
4.823000,-0.293872
4.824000,-0.239204
4.825000,-0.169980
4.826000,-0.020856
4.827000,0.165468
4.828000,0.292919
4.829000,0.315886
4.830000,0.298418
4.831000,0.221430
4.832000,0.057750
4.833000,-0.106578
4.834000,-0.256672
4.835000,-0.318456
4.836000,-0.356304
4.837000,-0.358244
4.838000,-0.349510
4.839000,-0.317810
4.840000,-0.278345
4.841000,-0.216884
4.842000,-0.139896
4.843000,0.060337
4.844000,0.215284
4.845000,0.311357
4.846000,0.311681
4.847000,0.278686
4.848000,0.174525
4.849000,0.013433
4.850000,-0.174832
4.851000,-0.275434
4.852000,-0.334630
4.853000,-0.362773
4.854000,-0.359215
4.855000,-0.343688
4.856000,-0.310370
4.857000,-0.254084
4.858000,-0.198769
4.859000,-0.078435
4.860000,0.118240
4.861000,0.260247
4.862000,-0.326543
4.863000,-0.298401
4.864000,-0.283197
4.865000,-0.270905
4.866000,-0.258613
4.867000,-0.248262
4.868000,-0.242115
4.869000,-0.236616
4.870000,-0.232735
4.871000,-0.229500
4.872000,-0.226588
4.873000,-0.225618
4.874000,-0.225618
4.875000,-0.225942
4.876000,-0.231117
4.877000,-0.238234
4.878000,-0.242762
4.879000,-0.245350
4.880000,-0.244380
4.881000,-0.240175
4.882000,-0.232088
4.883000,-0.224324
4.884000,-0.217208
4.885000,-0.213326
4.886000,-0.210091
4.887000,-0.207180
4.888000,-0.204915
4.889000,-0.203621
4.890000,-0.202974
4.891000,-0.203945
4.892000,-0.205886
4.893000,-0.213973
4.894000,-0.220766
4.895000,-0.226265
4.896000,-0.227882
4.897000,-0.227559
4.898000,-0.223030
4.899000,-0.215914
4.900000,-0.207180
4.901000,-0.202651
4.902000,-0.198769
4.903000,-0.196181
4.904000,-0.193594
4.905000,-0.191653
4.906000,-0.190682
4.907000,-0.191976
4.908000,-0.192623
4.909000,-0.196505
4.910000,-0.204268
4.911000,-0.212355
4.912000,-0.216237
4.913000,-0.217855
4.914000,-0.215914
4.915000,-0.211708
4.916000,-0.203945
4.917000,-0.196505
4.918000,-0.192623
4.919000,-0.189388
4.920000,-0.186154
4.921000,-0.184213
4.922000,-0.182919
4.923000,-0.182595
4.924000,-0.183566
4.925000,-0.185183
4.926000,-0.191329
4.927000,-0.199740
4.928000,-0.206209
4.929000,-0.209768
4.930000,-0.211385
4.931000,-0.208474
4.932000,-0.201681
4.933000,-0.194564
4.934000,-0.187771
4.935000,-0.184860
4.936000,-0.181948
4.937000,-0.179361
4.938000,-0.177096
4.939000,-0.176773
4.940000,-0.176126
4.941000,-0.177420
4.942000,-0.179684
4.943000,-0.188094
4.944000,-0.195534
4.945000,-0.202651
4.946000,-0.204915
4.947000,-0.205239
4.948000,-0.201681
4.949000,-0.194888
4.950000,-0.186154
4.951000,-0.181625
4.952000,-0.178390
4.953000,-0.175479
4.954000,-0.173214
4.955000,-0.172567
4.956000,-0.170950
4.957000,-0.171597
4.958000,-0.172891
4.959000,-0.177743
4.960000,-0.185830
4.961000,-0.193594
4.962000,-0.197799
4.963000,-0.201034
4.964000,-0.198769
4.965000,-0.195534
4.966000,-0.187124
4.967000,-0.180331
4.968000,-0.176126
4.969000,-0.172891
4.970000,-0.170627
4.971000,-0.168362
4.972000,-0.167068
4.973000,-0.166745
4.974000,-0.167392
4.975000,-0.169656
4.976000,-0.175802
4.977000,-0.184536
4.978000,-0.191006
4.979000,-0.195211
4.980000,-0.196505
4.981000,-0.194564
4.982000,-0.187771
4.983000,-0.181301
4.984000,-0.174508
4.985000,-0.171597
4.986000,-0.168362
4.987000,-0.166098
4.988000,-0.163834
4.989000,-0.162863
4.990000,-0.162863
4.991000,-0.164480
4.992000,-0.167068
4.993000,-0.176449
4.994000,-0.182595
4.995000,-0.189065
4.996000,-0.193270
4.997000,-0.192623
4.998000,-0.189388
4.999000,-0.181948
