LabVIEW Measurement,
Writer_Version,2
Reader_Version,2
Separator,Comma
Decimal_Separator,.
Multi_Headings,No
X_Columns,One
Time_Pref,Absolute
Operator,localuser
Date,2024/07/15
Time,10:19:04.9149417999995266623
***End_of_Header***,
,
Channels,1,
Samples,5000,
Date,2024/07/15,
Time,10:19:04.9149417999995266623,
Y_Unit_Label,Volts,
X_Dimension,Time,
X0,0.0000000000000000E+0,
Delta_X,0.001000,
***End_of_Header***,,
X_Value,Voltage,Comment
0.000000,-0.217531
0.001000,-0.215267
0.002000,-0.214296
0.003000,-0.214620
0.004000,-0.215914
0.005000,-0.220442
0.006000,-0.228529
0.007000,-0.234028
0.008000,-0.236616
0.009000,-0.236940
0.010000,-0.233382
0.011000,-0.226265
0.012000,-0.218501
0.013000,-0.210415
0.014000,-0.207503
0.015000,-0.203621
0.016000,-0.200710
0.017000,-0.198446
0.018000,-0.197152
0.019000,-0.197152
0.020000,-0.198122
0.021000,-0.200387
0.022000,-0.207827
0.023000,-0.215914
0.024000,-0.221089
0.025000,-0.222707
0.026000,-0.224001
0.027000,-0.218825
0.028000,-0.212032
0.029000,-0.203298
0.030000,-0.198446
0.031000,-0.194564
0.032000,-0.192623
0.033000,-0.189065
0.034000,-0.186801
0.035000,-0.186154
0.036000,-0.187124
0.037000,-0.188094
0.038000,-0.192623
0.039000,-0.200063
0.040000,-0.207827
0.041000,-0.213002
0.042000,-0.214620
0.043000,-0.213973
0.044000,-0.208797
0.045000,-0.202004
0.046000,-0.193270
0.047000,-0.189065
0.048000,-0.186477
0.049000,-0.183566
0.050000,-0.180978
0.051000,-0.179037
0.052000,-0.179361
0.053000,-0.180654
0.054000,-0.181625
0.055000,-0.187771
0.056000,-0.196505
0.057000,-0.202974
0.058000,-0.207180
0.059000,-0.208150
0.060000,-0.205886
0.061000,-0.199740
0.062000,-0.192300
0.063000,-0.185183
0.064000,-0.181948
0.065000,-0.179361
0.066000,-0.176449
0.067000,-0.174508
0.068000,-0.173538
0.069000,-0.173214
0.070000,-0.174508
0.071000,-0.177420
0.072000,-0.185507
0.073000,-0.192947
0.074000,-0.199740
0.075000,-0.202328
0.076000,-0.202651
0.077000,-0.198769
0.078000,-0.192623
0.079000,-0.184536
0.080000,-0.179037
0.081000,-0.176126
0.082000,-0.173214
0.083000,0.306181
0.084000,0.286449
0.085000,0.296154
0.086000,0.319444
0.087000,0.324943
0.088000,0.352762
0.089000,0.353733
0.090000,0.347910
0.091000,0.332060
0.092000,0.310710
0.093000,0.243427
0.094000,0.135708
0.095000,-0.037353
0.096000,-0.212679
0.097000,-0.295813
0.098000,-0.342717
0.099000,-0.357921
0.100000,-0.351775
0.101000,-0.333983
0.102000,-0.292902
0.103000,-0.239528
0.104000,-0.169980
0.105000,-0.023120
0.106000,0.164498
0.107000,0.292919
0.108000,0.318150
0.109000,0.299712
0.110000,0.223047
0.111000,0.060984
0.112000,-0.099138
0.113000,-0.255055
0.114000,-0.314575
0.115000,-0.350804
0.116000,-0.360509
0.117000,-0.346276
0.118000,-0.317486
0.119000,-0.275110
0.120000,-0.217855
0.121000,-0.138602
0.122000,0.056456
0.123000,0.211079
0.124000,0.310387
0.125000,0.312004
0.126000,0.279980
0.127000,0.178084
0.128000,0.016021
0.129000,-0.166421
0.130000,-0.269935
0.131000,-0.332366
0.132000,-0.355657
0.133000,-0.355980
0.134000,-0.342070
0.135000,-0.309723
0.136000,-0.253437
0.137000,-0.199416
0.138000,-0.080699
0.139000,0.112418
0.140000,0.256042
0.141000,0.316209
0.142000,0.305534
0.143000,0.240515
0.144000,0.135708
0.145000,-0.043176
0.146000,-0.219472
0.147000,-0.296136
0.148000,-0.345952
0.149000,-0.357921
0.150000,-0.350481
0.151000,-0.330102
0.152000,-0.290637
0.153000,-0.238881
0.154000,-0.168362
0.155000,-0.021826
0.156000,0.164821
0.157000,0.293566
0.158000,0.317180
0.159000,0.300359
0.160000,0.220136
0.161000,0.062602
0.162000,-0.100755
0.163000,-0.255055
0.164000,-0.316839
0.165000,-0.355657
0.166000,-0.359215
0.167000,-0.347246
0.168000,-0.317810
0.169000,-0.276728
0.170000,-0.218501
0.171000,-0.138602
0.172000,0.060337
0.173000,0.213019
0.174000,0.311034
0.175000,0.312328
0.176000,0.281921
0.177000,0.176790
0.178000,0.012786
0.179000,-0.167068
0.180000,-0.273816
0.181000,-0.333337
0.182000,-0.360832
0.183000,-0.309723
0.184000,-0.288696
0.185000,-0.277698
0.186000,-0.270905
0.187000,-0.265729
0.188000,-0.264436
0.189000,-0.267670
0.190000,-0.269288
0.191000,-0.268317
0.192000,-0.265082
0.193000,-0.259583
0.194000,-0.252143
0.195000,-0.242439
0.196000,-0.232735
0.197000,-0.227882
0.198000,-0.223354
0.199000,-0.220766
0.200000,-0.216884
0.201000,-0.215590
0.202000,-0.214296
0.203000,-0.214943
0.204000,-0.215590
0.205000,-0.220766
0.206000,-0.228529
0.207000,-0.234352
0.208000,-0.236940
0.209000,-0.236940
0.210000,-0.233382
0.211000,-0.225618
0.212000,-0.218178
0.213000,-0.210738
0.214000,-0.207180
0.215000,-0.203945
0.216000,-0.201034
0.217000,-0.198446
0.218000,-0.197475
0.219000,-0.197152
0.220000,-0.198122
0.221000,-0.200387
0.222000,-0.208474
0.223000,-0.215590
0.224000,-0.221089
0.225000,-0.223030
0.226000,-0.223354
0.227000,-0.219148
0.228000,-0.211708
0.229000,-0.203945
0.230000,-0.198122
0.231000,-0.195211
0.232000,-0.192300
0.233000,-0.189065
0.234000,-0.187448
0.235000,-0.186801
0.236000,-0.187124
0.237000,-0.188418
0.238000,-0.192623
0.239000,-0.200387
0.240000,-0.208797
0.241000,-0.213326
0.242000,-0.214943
0.243000,-0.213649
0.244000,-0.208797
0.245000,-0.201034
0.246000,-0.193270
0.247000,-0.189388
0.248000,-0.186154
0.249000,-0.184213
0.250000,-0.181948
0.251000,-0.180007
0.252000,-0.179361
0.253000,-0.180007
0.254000,-0.181948
0.255000,-0.188094
0.256000,-0.196505
0.257000,-0.203298
0.258000,-0.207503
0.259000,-0.208797
0.260000,-0.205886
0.261000,-0.199093
0.262000,-0.192623
0.263000,-0.185830
0.264000,-0.182272
0.265000,-0.179037
0.266000,-0.176449
0.267000,-0.174508
0.268000,-0.173538
0.269000,-0.173214
0.270000,-0.174832
0.271000,-0.177096
0.272000,-0.186154
0.273000,-0.193270
0.274000,-0.199740
0.275000,-0.202004
0.276000,-0.202974
0.277000,-0.199093
0.278000,-0.192300
0.279000,-0.184536
0.280000,-0.179361
0.281000,-0.175802
0.282000,-0.173861
0.283000,0.300035
0.284000,0.286126
0.285000,0.295183
0.286000,0.320738
0.287000,0.324620
0.288000,0.354056
0.289000,0.353086
0.290000,0.347263
0.291000,0.330442
0.292000,0.309093
0.293000,0.238898
0.294000,0.129238
0.295000,-0.043823
0.296000,-0.220119
0.297000,-0.297107
0.298000,-0.345305
0.299000,-0.359538
0.300000,-0.352098
0.301000,-0.333337
0.302000,-0.293872
0.303000,-0.234675
0.304000,-0.167068
0.305000,-0.014710
0.306000,0.169997
0.307000,0.297771
0.308000,0.316856
0.309000,0.299065
0.310000,0.219813
0.311000,0.060337
0.312000,-0.106578
0.313000,-0.256672
0.314000,-0.316516
0.315000,-0.355657
0.316000,-0.357597
0.317000,-0.346923
0.318000,-0.315545
0.319000,-0.274140
0.320000,-0.216561
0.321000,-0.136014
0.322000,0.064219
0.323000,0.216901
0.324000,0.312004
0.325000,0.311681
0.326000,0.278362
0.327000,0.169673
0.328000,0.013756
0.329000,-0.174508
0.330000,-0.275757
0.331000,-0.333660
0.332000,-0.360832
0.333000,-0.356950
0.334000,-0.341100
0.335000,-0.306164
0.336000,-0.251820
0.337000,-0.196828
0.338000,-0.072936
0.339000,0.120828
0.340000,0.259600
0.341000,0.316533
0.342000,0.306828
0.343000,0.241809
0.344000,0.128268
0.345000,-0.046411
0.346000,-0.221413
0.347000,-0.299695
0.348000,-0.347570
0.349000,-0.360832
0.350000,-0.354039
0.351000,-0.328484
0.352000,-0.291284
0.353000,-0.235646
0.354000,-0.164157
0.355000,-0.012769
0.356000,0.171614
0.357000,0.296801
0.358000,0.317827
0.359000,0.298418
0.360000,0.218195
0.361000,0.054838
0.362000,-0.110136
0.363000,-0.257642
0.364000,-0.319427
0.365000,-0.355657
0.366000,-0.358891
0.367000,-0.346599
0.368000,-0.316839
0.369000,-0.274140
0.370000,-0.216561
0.371000,-0.136338
0.372000,0.067777
0.373000,0.217225
0.374000,0.313945
0.375000,0.311681
0.376000,0.272540
0.377000,0.169026
0.378000,0.011492
0.379000,-0.176126
0.380000,-0.276728
0.381000,-0.333660
0.382000,-0.359862
0.383000,-0.305841
0.384000,-0.287726
0.385000,-0.276728
0.386000,-0.269935
0.387000,-0.265082
0.388000,-0.264436
0.389000,-0.267023
0.390000,-0.269288
0.391000,-0.267994
0.392000,-0.264759
0.393000,-0.259260
0.394000,-0.251820
0.395000,-0.241792
0.396000,-0.232411
0.397000,-0.227559
0.398000,-0.224001
0.399000,-0.219795
0.400000,-0.217208
0.401000,-0.214943
0.402000,-0.214296
0.403000,-0.214943
0.404000,-0.214943
0.405000,-0.221413
0.406000,-0.228853
0.407000,-0.234028
0.408000,-0.236616
0.409000,-0.237263
0.410000,-0.233705
0.411000,-0.225942
0.412000,-0.217855
0.413000,-0.210738
0.414000,-0.207180
0.415000,-0.203621
0.416000,-0.201034
0.417000,-0.198769
0.418000,-0.197152
0.419000,-0.197475
0.420000,-0.198446
0.421000,-0.199740
0.422000,-0.208797
0.423000,-0.215590
0.424000,-0.221413
0.425000,-0.223354
0.426000,-0.223354
0.427000,-0.218501
0.428000,-0.212032
0.429000,-0.203298
0.430000,-0.198446
0.431000,-0.194888
0.432000,-0.191653
0.433000,-0.189065
0.434000,-0.187771
0.435000,-0.187124
0.436000,-0.186801
0.437000,-0.187771
0.438000,-0.193270
0.439000,-0.201681
0.440000,-0.208474
0.441000,-0.213002
0.442000,-0.214296
0.443000,-0.213326
0.444000,-0.208797
0.445000,-0.201357
0.446000,-0.193917
0.447000,-0.190035
0.448000,-0.186477
0.449000,-0.183242
0.450000,-0.180978
0.451000,-0.179037
0.452000,-0.179684
0.453000,-0.180007
0.454000,-0.181948
0.455000,-0.188741
0.456000,-0.197152
0.457000,-0.204268
0.458000,-0.207180
0.459000,-0.207827
0.460000,-0.206209
0.461000,-0.199093
0.462000,-0.191653
0.463000,-0.185183
0.464000,-0.181948
0.465000,-0.178714
0.466000,-0.176449
0.467000,-0.174185
0.468000,-0.173214
0.469000,-0.173861
0.470000,-0.174832
0.471000,-0.177096
0.472000,-0.186477
0.473000,-0.193270
0.474000,-0.199740
0.475000,-0.202328
0.476000,-0.202974
0.477000,-0.198446
0.478000,-0.192300
0.479000,-0.184536
0.480000,-0.179037
0.481000,-0.176449
0.482000,-0.014063
0.483000,0.296801
0.484000,0.284185
0.485000,0.296154
0.486000,0.322679
0.487000,0.327208
0.488000,0.352762
0.489000,0.353733
0.490000,0.347910
0.491000,0.329472
0.492000,0.307475
0.493000,0.236633
0.494000,0.121475
0.495000,-0.049322
0.496000,-0.222383
0.497000,-0.301312
0.498000,-0.345305
0.499000,-0.358891
0.500000,-0.350481
0.501000,-0.329131
0.502000,-0.289020
0.503000,-0.235969
0.504000,-0.163510
0.505000,-0.008887
0.506000,0.172261
0.507000,0.301653
0.508000,0.319768
0.509000,0.297448
0.510000,0.217548
0.511000,0.051927
0.512000,-0.116606
0.513000,-0.259583
0.514000,-0.319750
0.515000,-0.357597
0.516000,-0.357597
0.517000,-0.347246
0.518000,-0.316192
0.519000,-0.272846
0.520000,-0.216237
0.521000,-0.133427
0.522000,0.069395
0.523000,0.221753
0.524000,0.314592
0.525000,0.310710
0.526000,0.270922
0.527000,0.171614
0.528000,0.005993
0.529000,-0.181625
0.530000,-0.279316
0.531000,-0.335277
0.532000,-0.361479
0.533000,-0.355980
0.534000,-0.341100
0.535000,-0.306164
0.536000,-0.249555
0.537000,-0.193594
0.538000,-0.069054
0.539000,0.124063
0.540000,0.267364
0.541000,0.316856
0.542000,0.307152
0.543000,0.234046
0.544000,0.119211
0.545000,-0.055468
0.546000,-0.227882
0.547000,-0.303253
0.548000,-0.348864
0.549000,-0.360509
0.550000,-0.350481
0.551000,-0.326867
0.552000,-0.292255
0.553000,-0.235646
0.554000,-0.162216
0.555000,-0.004358
0.556000,0.175172
0.557000,0.297771
0.558000,0.317827
0.559000,0.299388
0.560000,0.213990
0.561000,0.049986
0.562000,-0.118223
0.563000,-0.259260
0.564000,-0.322662
0.565000,-0.355980
0.566000,-0.357921
0.567000,-0.345952
0.568000,-0.317486
0.569000,-0.271229
0.570000,-0.214620
0.571000,-0.132456
0.572000,0.073600
0.573000,0.223694
0.574000,0.313945
0.575000,0.310710
0.576000,0.273834
0.577000,0.164821
0.578000,0.005346
0.579000,-0.182272
0.580000,-0.278669
0.581000,-0.335924
0.582000,-0.377006
0.583000,-0.303900
0.584000,-0.285785
0.585000,-0.275757
0.586000,-0.268964
0.587000,-0.265082
0.588000,-0.264759
0.589000,-0.267670
0.590000,-0.269611
0.591000,-0.267023
0.592000,-0.264759
0.593000,-0.258936
0.594000,-0.251496
0.595000,-0.241145
0.596000,-0.232411
0.597000,-0.227882
0.598000,-0.223677
0.599000,-0.220119
0.600000,-0.216561
0.601000,-0.214943
0.602000,-0.214620
0.603000,-0.213973
0.604000,-0.215267
0.605000,-0.221413
0.606000,-0.228853
0.607000,-0.234999
0.608000,-0.236616
0.609000,-0.236616
0.610000,-0.232411
0.611000,-0.225942
0.612000,-0.217531
0.613000,-0.211061
0.614000,-0.206856
0.615000,-0.203621
0.616000,-0.201034
0.617000,-0.198446
0.618000,-0.197475
0.619000,-0.197475
0.620000,-0.198446
0.621000,-0.200710
0.622000,-0.209121
0.623000,-0.215914
0.624000,-0.221089
0.625000,-0.223354
0.626000,-0.223030
0.627000,-0.218501
0.628000,-0.211385
0.629000,-0.202974
0.630000,-0.198122
0.631000,-0.194888
0.632000,-0.191976
0.633000,-0.189065
0.634000,-0.187448
0.635000,-0.186801
0.636000,-0.187448
0.637000,-0.188094
0.638000,-0.192947
0.639000,-0.202004
0.640000,-0.209444
0.641000,-0.213002
0.642000,-0.214296
0.643000,-0.213002
0.644000,-0.208474
0.645000,-0.201034
0.646000,-0.192623
0.647000,-0.188741
0.648000,-0.186154
0.649000,-0.183242
0.650000,-0.180654
0.651000,-0.180007
0.652000,-0.179684
0.653000,-0.179684
0.654000,-0.182272
0.655000,-0.189065
0.656000,-0.196505
0.657000,-0.203945
0.658000,-0.207503
0.659000,-0.208797
0.660000,-0.205239
0.661000,-0.199416
0.662000,-0.191653
0.663000,-0.185183
0.664000,-0.181625
0.665000,-0.179037
0.666000,-0.176449
0.667000,-0.174185
0.668000,-0.173214
0.669000,-0.173861
0.670000,-0.174832
0.671000,-0.177096
0.672000,-0.186477
0.673000,-0.194241
0.674000,-0.199740
0.675000,-0.202651
0.676000,-0.202651
0.677000,-0.198769
0.678000,-0.191653
0.679000,-0.184213
0.680000,-0.179037
0.681000,-0.175802
0.682000,0.368289
0.683000,0.295183
0.684000,0.281921
0.685000,0.294213
0.686000,0.319768
0.687000,0.327531
0.688000,0.352439
0.689000,0.354380
0.690000,0.347263
0.691000,0.332383
0.692000,0.307475
0.693000,0.238898
0.694000,0.112741
0.695000,-0.058056
0.696000,-0.225942
0.697000,-0.304223
0.698000,-0.347246
0.699000,-0.360509
0.700000,-0.351775
0.701000,-0.326220
0.702000,-0.286432
0.703000,-0.230470
0.704000,-0.159305
0.705000,0.002758
0.706000,0.179378
0.707000,0.300682
0.708000,0.314268
0.709000,0.296801
0.710000,0.209461
0.711000,0.044487
0.712000,-0.124693
0.713000,-0.261201
0.714000,-0.321044
0.715000,-0.357921
0.716000,-0.360185
0.717000,-0.345629
0.718000,-0.316192
0.719000,-0.270582
0.720000,-0.213649
0.721000,-0.129545
0.722000,0.077482
0.723000,0.228546
0.724000,0.315562
0.725000,0.312328
0.726000,0.266717
0.727000,0.165792
0.728000,0.000494
0.729000,-0.186477
0.730000,-0.280609
0.731000,-0.336571
0.732000,-0.361156
0.733000,-0.356304
0.734000,-0.340130
0.735000,-0.303576
0.736000,-0.247615
0.737000,-0.191329
0.738000,-0.061614
0.739000,0.129238
0.740000,0.268334
0.741000,0.316856
0.742000,0.305534
0.743000,0.236310
0.744000,0.108536
0.745000,-0.058703
0.746000,-0.228529
0.747000,-0.307135
0.748000,-0.348540
0.749000,-0.359538
0.750000,-0.350481
0.751000,-0.328161
0.752000,-0.288696
0.753000,-0.231764
0.754000,-0.158334
0.755000,0.003082
0.756000,0.180995
0.757000,0.302300
0.758000,0.316533
0.759000,0.297448
0.760000,0.213019
0.761000,0.045457
0.762000,-0.126957
0.763000,-0.261201
0.764000,-0.320721
0.765000,-0.357274
0.766000,-0.358891
0.767000,-0.342070
0.768000,-0.316192
0.769000,-0.269288
0.770000,-0.212679
0.771000,-0.125986
0.772000,0.078129
0.773000,0.229840
0.774000,0.316533
0.775000,0.310710
0.776000,0.263482
0.777000,0.164821
0.778000,0.001141
0.779000,-0.188094
0.780000,-0.281580
0.781000,-0.336571
0.782000,-0.352422
0.783000,-0.300665
0.784000,-0.283844
0.785000,-0.274787
0.786000,-0.268317
0.787000,-0.264112
0.788000,-0.264436
0.789000,-0.267347
0.790000,-0.268317
0.791000,-0.267347
0.792000,-0.264436
0.793000,-0.258289
0.794000,-0.249879
0.795000,-0.240498
0.796000,-0.232411
0.797000,-0.226265
0.798000,-0.222707
0.799000,-0.219795
0.800000,-0.216884
0.801000,-0.215590
0.802000,-0.214943
0.803000,-0.213973
0.804000,-0.215590
0.805000,-0.222060
0.806000,-0.228853
0.807000,-0.234675
0.808000,-0.235969
0.809000,-0.236616
0.810000,-0.232735
0.811000,-0.225295
0.812000,-0.217208
0.813000,-0.210738
0.814000,-0.207180
0.815000,-0.203621
0.816000,-0.200387
0.817000,-0.198769
0.818000,-0.197799
0.819000,-0.197475
0.820000,-0.198446
0.821000,-0.200387
0.822000,-0.209444
0.823000,-0.216561
0.824000,-0.221089
0.825000,-0.223354
0.826000,-0.222707
0.827000,-0.218501
0.828000,-0.211385
0.829000,-0.202651
0.830000,-0.197799
0.831000,-0.194564
0.832000,-0.191653
0.833000,-0.189065
0.834000,-0.187124
0.835000,-0.186801
0.836000,-0.187771
0.837000,-0.188741
0.838000,-0.193270
0.839000,-0.202328
0.840000,-0.208797
0.841000,-0.212679
0.842000,-0.215267
0.843000,-0.213326
0.844000,-0.207180
0.845000,-0.201034
0.846000,-0.193594
0.847000,-0.188418
0.848000,-0.186154
0.849000,-0.183242
0.850000,-0.180654
0.851000,-0.179684
0.852000,-0.179361
0.853000,-0.179361
0.854000,-0.181948
0.855000,-0.189065
0.856000,-0.197152
0.857000,-0.204268
0.858000,-0.207180
0.859000,-0.208474
0.860000,-0.204915
0.861000,-0.199093
0.862000,-0.191329
0.863000,-0.186154
0.864000,-0.181948
0.865000,-0.178714
0.866000,-0.176126
0.867000,-0.174508
0.868000,-0.174185
0.869000,-0.173861
0.870000,-0.174832
0.871000,-0.177743
0.872000,-0.186801
0.873000,-0.193917
0.874000,-0.200063
0.875000,-0.202328
0.876000,-0.202651
0.877000,-0.198446
0.878000,-0.191653
0.879000,-0.183566
0.880000,-0.178714
0.881000,-0.175802
0.882000,0.349528
0.883000,0.291625
0.884000,0.280627
0.885000,0.295183
0.886000,0.318797
0.887000,0.327208
0.888000,0.353409
0.889000,0.353409
0.890000,0.347910
0.891000,0.328825
0.892000,0.306505
0.893000,0.236633
0.894000,0.104007
0.895000,-0.061614
0.896000,-0.231117
0.897000,-0.304870
0.898000,-0.347246
0.899000,-0.358568
0.900000,-0.347246
0.901000,-0.326220
0.902000,-0.286432
0.903000,-0.231117
0.904000,-0.156070
0.905000,0.012463
0.906000,0.184553
0.907000,0.304564
0.908000,0.315562
0.909000,0.297771
0.910000,0.206226
0.911000,0.042546
0.912000,-0.131162
0.913000,-0.262495
0.914000,-0.322015
0.915000,-0.357597
0.916000,-0.356304
0.917000,-0.343688
0.918000,-0.311663
0.919000,-0.266700
0.920000,-0.208797
0.921000,-0.121781
0.922000,0.083628
0.923000,0.234693
0.924000,0.315562
0.925000,0.308122
0.926000,0.265100
0.927000,0.162233
0.928000,-0.006946
0.929000,-0.192300
0.930000,-0.283197
0.931000,-0.337865
0.932000,-0.360832
0.933000,-0.355657
0.934000,-0.338836
0.935000,-0.303576
0.936000,-0.247938
0.937000,-0.187771
0.938000,-0.056762
0.939000,0.135385
0.940000,0.273187
0.941000,0.319444
0.942000,0.302947
0.943000,0.235340
0.944000,0.104007
0.945000,-0.064525
0.946000,-0.236293
0.947000,-0.307135
0.948000,-0.349834
0.949000,-0.359538
0.950000,-0.353716
0.951000,-0.323309
0.952000,-0.287726
0.953000,-0.229176
0.954000,-0.158011
0.955000,0.015050
0.956000,0.186494
0.957000,0.304564
0.958000,0.317827
0.959000,0.295183
0.960000,0.202992
0.961000,0.038664
0.962000,-0.133103
0.963000,-0.262171
0.964000,-0.322662
0.965000,-0.356950
0.966000,-0.357921
0.967000,-0.344982
0.968000,-0.313604
0.969000,-0.268317
0.970000,-0.212679
0.971000,-0.115312
0.972000,0.082334
0.973000,0.235016
0.974000,0.314915
0.975000,0.309740
0.976000,0.258954
0.977000,0.161263
0.978000,-0.009211
0.979000,-0.194564
0.980000,-0.286109
0.981000,-0.339159
0.982000,-0.339806
0.983000,-0.298724
0.984000,-0.282874
0.985000,-0.273816
0.986000,-0.267994
0.987000,-0.263789
0.988000,-0.264112
0.989000,-0.267347
0.990000,-0.268964
0.991000,-0.267347
0.992000,-0.264112
0.993000,-0.257642
0.994000,-0.249879
0.995000,-0.240498
0.996000,-0.231764
0.997000,-0.226588
0.998000,-0.223030
0.999000,-0.219472
1.000000,-0.216561
1.001000,-0.214943
1.002000,-0.213649
1.003000,-0.214296
1.004000,-0.215914
1.005000,-0.222060
1.006000,-0.229500
1.007000,-0.234675
1.008000,-0.236616
1.009000,-0.236616
1.010000,-0.232088
1.011000,-0.224971
1.012000,-0.216561
1.013000,-0.210415
1.014000,-0.207180
1.015000,-0.203621
1.016000,-0.201034
1.017000,-0.198769
1.018000,-0.197799
1.019000,-0.196828
1.020000,-0.198122
1.021000,-0.201034
1.022000,-0.209768
1.023000,-0.216884
1.024000,-0.220766
1.025000,-0.223354
1.026000,-0.222707
1.027000,-0.218501
1.028000,-0.210738
1.029000,-0.202328
1.030000,-0.197799
1.031000,-0.194241
1.032000,-0.191329
1.033000,-0.189065
1.034000,-0.187448
1.035000,-0.186477
1.036000,-0.187448
1.037000,-0.188741
1.038000,-0.193270
1.039000,-0.202328
1.040000,-0.209121
1.041000,-0.213002
1.042000,-0.214620
1.043000,-0.213002
1.044000,-0.207503
1.045000,-0.200063
1.046000,-0.192623
1.047000,-0.188741
1.048000,-0.185507
1.049000,-0.183242
1.050000,-0.180654
1.051000,-0.179361
1.052000,-0.179684
1.053000,-0.180654
1.054000,-0.182272
1.055000,-0.189388
1.056000,-0.197475
1.057000,-0.204268
1.058000,-0.207503
1.059000,-0.208797
1.060000,-0.205562
1.061000,-0.198769
1.062000,-0.191006
1.063000,-0.184860
1.064000,-0.181948
1.065000,-0.179037
1.066000,-0.176126
1.067000,-0.174185
1.068000,-0.173538
1.069000,-0.173861
1.070000,-0.175155
1.071000,-0.178067
1.072000,-0.187124
1.073000,-0.194241
1.074000,-0.199093
1.075000,-0.202974
1.076000,-0.202004
1.077000,-0.198122
1.078000,-0.191329
1.079000,-0.183242
1.080000,-0.179361
1.081000,-0.175479
1.082000,0.335618
1.083000,0.288067
1.084000,0.279656
1.085000,0.294213
1.086000,0.318150
1.087000,0.328825
1.088000,0.353086
1.089000,0.353733
1.090000,0.347910
1.091000,0.329795
1.092000,0.306505
1.093000,0.234693
1.094000,0.095273
1.095000,-0.066790
1.096000,-0.237910
1.097000,-0.307782
1.098000,-0.349187
1.099000,-0.358244
1.100000,-0.350804
1.101000,-0.322985
1.102000,-0.285785
1.103000,-0.228206
1.104000,-0.151865
1.105000,0.024108
1.106000,0.189082
1.107000,0.305858
1.108000,0.314592
1.109000,0.294860
1.110000,0.201698
1.111000,0.035430
1.112000,-0.138602
1.113000,-0.263789
1.114000,-0.323956
1.115000,-0.357274
1.116000,-0.358244
1.117000,-0.343041
1.118000,-0.311016
1.119000,-0.264436
1.120000,-0.210415
1.121000,-0.110783
1.122000,0.087510
1.123000,0.237604
1.124000,0.315562
1.125000,0.308769
1.126000,0.252160
1.127000,0.157058
1.128000,-0.012769
1.129000,-0.199093
1.130000,-0.288696
1.131000,-0.337865
1.132000,-0.361803
1.133000,-0.355010
1.134000,-0.338512
1.135000,-0.301959
1.136000,-0.245027
1.137000,-0.184213
1.138000,-0.051910
1.139000,0.140560
1.140000,0.279333
1.141000,0.318150
1.142000,0.303270
1.143000,0.233722
1.144000,0.089774
1.145000,-0.070025
1.146000,-0.241792
1.147000,-0.310046
1.148000,-0.351128
1.149000,-0.358568
1.150000,-0.349834
1.151000,-0.324603
1.152000,-0.286432
1.153000,-0.228206
1.154000,-0.151218
1.155000,0.024108
1.156000,0.191346
1.157000,0.303917
1.158000,0.315239
1.159000,0.292919
1.160000,0.197169
1.161000,0.035753
1.162000,-0.139896
1.163000,-0.263789
1.164000,-0.325250
1.165000,-0.358568
1.166000,-0.361156
1.167000,-0.345952
1.168000,-0.311663
1.169000,-0.261848
1.170000,-0.206533
1.171000,-0.109489
1.172000,0.087186
1.173000,0.236957
1.174000,0.312651
1.175000,0.312004
1.176000,0.257013
1.177000,0.154470
1.178000,-0.013739
1.179000,-0.199740
1.180000,-0.287726
1.181000,-0.338836
1.182000,-0.331719
1.183000,-0.296136
1.184000,-0.281580
1.185000,-0.273493
1.186000,-0.267347
1.187000,-0.263789
1.188000,-0.263465
1.189000,-0.267347
1.190000,-0.268317
1.191000,-0.267023
1.192000,-0.263465
1.193000,-0.258289
1.194000,-0.248585
1.195000,-0.240175
1.196000,-0.231117
1.197000,-0.226588
1.198000,-0.223030
1.199000,-0.219472
1.200000,-0.216561
1.201000,-0.215267
1.202000,-0.213649
1.203000,-0.214296
1.204000,-0.216237
1.205000,-0.222707
1.206000,-0.229500
1.207000,-0.234675
1.208000,-0.236293
1.209000,-0.236940
1.210000,-0.232735
1.211000,-0.224001
1.212000,-0.215590
1.213000,-0.209444
1.214000,-0.206209
1.215000,-0.202974
1.216000,-0.200710
1.217000,-0.197799
1.218000,-0.197152
1.219000,-0.197475
1.220000,-0.197799
1.221000,-0.201681
1.222000,-0.209444
1.223000,-0.216884
1.224000,-0.221413
1.225000,-0.223677
1.226000,-0.221736
1.227000,-0.218501
1.228000,-0.210415
1.229000,-0.201357
1.230000,-0.197152
1.231000,-0.195534
1.232000,-0.191976
1.233000,-0.188418
1.234000,-0.187124
1.235000,-0.186801
1.236000,-0.187448
1.237000,-0.188741
1.238000,-0.193917
1.239000,-0.202651
1.240000,-0.209444
1.241000,-0.213326
1.242000,-0.214620
1.243000,-0.213002
1.244000,-0.206856
1.245000,-0.199740
1.246000,-0.192300
1.247000,-0.188418
1.248000,-0.185830
1.249000,-0.182919
1.250000,-0.180331
1.251000,-0.179684
1.252000,-0.179037
1.253000,-0.180331
1.254000,-0.182595
1.255000,-0.190035
1.256000,-0.198122
1.257000,-0.204268
1.258000,-0.207503
1.259000,-0.208150
1.260000,-0.205239
1.261000,-0.198769
1.262000,-0.191006
1.263000,-0.185507
1.264000,-0.180978
1.265000,-0.178714
1.266000,-0.176449
1.267000,-0.174185
1.268000,-0.173214
1.269000,-0.174185
1.270000,-0.175479
1.271000,-0.179037
1.272000,-0.187448
1.273000,-0.194564
1.274000,-0.199740
1.275000,-0.202651
1.276000,-0.201681
1.277000,-0.198122
1.278000,-0.191329
1.279000,-0.182919
1.280000,-0.179037
1.281000,-0.175155
1.282000,0.324620
1.283000,0.283538
1.284000,0.278039
1.285000,0.295507
1.286000,0.317503
1.287000,0.328825
1.288000,0.352115
1.289000,0.352115
1.290000,0.347910
1.291000,0.326237
1.292000,0.303917
1.293000,0.230811
1.294000,0.087833
1.295000,-0.073906
1.296000,-0.244380
1.297000,-0.309076
1.298000,-0.352098
1.299000,-0.356950
1.300000,-0.348217
1.301000,-0.320397
1.302000,-0.285462
1.303000,-0.226912
1.304000,-0.147983
1.305000,0.033812
1.306000,0.193934
1.307000,0.305534
1.308000,0.313945
1.309000,0.291625
1.310000,0.196199
1.311000,0.031871
1.312000,-0.147983
1.313000,-0.264112
1.314000,-0.324279
1.315000,-0.360832
1.316000,-0.359862
1.317000,-0.344011
1.318000,-0.310693
1.319000,-0.260554
1.320000,-0.207180
1.321000,-0.101402
1.322000,0.093656
1.323000,0.243103
1.324000,0.316533
1.325000,0.308769
1.326000,0.255072
1.327000,0.154146
1.328000,-0.022473
1.329000,-0.205562
1.330000,-0.291608
1.331000,-0.343688
1.332000,-0.361479
1.333000,-0.354363
1.334000,-0.337865
1.335000,-0.298401
1.336000,-0.244703
1.337000,-0.180654
1.338000,-0.046411
1.339000,0.148647
1.340000,0.281921
1.341000,0.317827
1.342000,0.303270
1.343000,0.228870
1.344000,0.081364
1.345000,-0.079082
1.346000,-0.246321
1.347000,-0.311340
1.348000,-0.350481
1.349000,-0.357921
1.350000,-0.346923
1.351000,-0.322338
1.352000,-0.285462
1.353000,-0.225942
1.354000,-0.147660
1.355000,0.032842
1.356000,0.196522
1.357000,0.307152
1.358000,0.313298
1.359000,0.292272
1.360000,0.193611
1.361000,0.031224
1.362000,-0.148307
1.363000,-0.266376
1.364000,-0.329131
1.365000,-0.358244
1.366000,-0.358244
1.367000,-0.340130
1.368000,-0.310370
1.369000,-0.258289
1.370000,-0.206856
1.371000,-0.099785
1.372000,0.095597
1.373000,0.244720
1.374000,0.316209
1.375000,0.307475
1.376000,0.253131
1.377000,0.150265
1.378000,-0.022797
1.379000,-0.203945
1.380000,-0.292578
1.381000,-0.341100
1.382000,-0.324926
1.383000,-0.294196
1.384000,-0.279962
1.385000,-0.272199
1.386000,-0.267023
1.387000,-0.263142
1.388000,-0.263789
1.389000,-0.267347
1.390000,-0.267994
1.391000,-0.266700
1.392000,-0.263789
1.393000,-0.257642
1.394000,-0.248585
1.395000,-0.239851
1.396000,-0.230470
1.397000,-0.226265
1.398000,-0.222383
1.399000,-0.218825
1.400000,-0.216237
1.401000,-0.214620
1.402000,-0.213649
1.403000,-0.214296
1.404000,-0.215590
1.405000,-0.222707
1.406000,-0.229176
1.407000,-0.234675
1.408000,-0.236293
1.409000,-0.236293
1.410000,-0.232088
1.411000,-0.224648
1.412000,-0.215914
1.413000,-0.210415
1.414000,-0.206533
1.415000,-0.202651
1.416000,-0.200063
1.417000,-0.198446
1.418000,-0.197799
1.419000,-0.197475
1.420000,-0.198122
1.421000,-0.201681
1.422000,-0.210738
1.423000,-0.216884
1.424000,-0.221413
1.425000,-0.223354
1.426000,-0.222383
1.427000,-0.217855
1.428000,-0.210738
1.429000,-0.202004
1.430000,-0.197799
1.431000,-0.194241
1.432000,-0.191976
1.433000,-0.188741
1.434000,-0.186801
1.435000,-0.186801
1.436000,-0.186801
1.437000,-0.189065
1.438000,-0.194241
1.439000,-0.202328
1.440000,-0.209768
1.441000,-0.213326
1.442000,-0.214620
1.443000,-0.212679
1.444000,-0.206533
1.445000,-0.199740
1.446000,-0.192300
1.447000,-0.188741
1.448000,-0.185183
1.449000,-0.182595
1.450000,-0.180978
1.451000,-0.179361
1.452000,-0.179361
1.453000,-0.180331
1.454000,-0.182595
1.455000,-0.190682
1.456000,-0.197799
1.457000,-0.204268
1.458000,-0.207180
1.459000,-0.208797
1.460000,-0.204592
1.461000,-0.198122
1.462000,-0.190682
1.463000,-0.184536
1.464000,-0.181625
1.465000,-0.178390
1.466000,-0.176126
1.467000,-0.173538
1.468000,-0.172567
1.469000,-0.174185
1.470000,-0.175479
1.471000,-0.178390
1.472000,-0.187771
1.473000,-0.194888
1.474000,-0.200387
1.475000,-0.202328
1.476000,-0.202004
1.477000,-0.197475
1.478000,-0.189712
1.479000,-0.182595
1.480000,-0.178714
1.481000,-0.175479
1.482000,0.315886
1.483000,0.282244
1.484000,0.275774
1.485000,0.294213
1.486000,0.316856
1.487000,0.329795
1.488000,0.352439
1.489000,0.352762
1.490000,0.345969
1.491000,0.328825
1.492000,0.304241
1.493000,0.225312
1.494000,0.079099
1.495000,-0.082640
1.496000,-0.247938
1.497000,-0.311340
1.498000,-0.351128
1.499000,-0.358568
1.500000,-0.347893
1.501000,-0.320721
1.502000,-0.283197
1.503000,-0.223030
1.504000,-0.145395
1.505000,0.040605
1.506000,0.200080
1.507000,0.308446
1.508000,0.313621
1.509000,0.292595
1.510000,0.186171
1.511000,0.027343
1.512000,-0.153482
1.513000,-0.268641
1.514000,-0.329778
1.515000,-0.359538
1.516000,-0.357274
1.517000,-0.343364
1.518000,-0.311987
1.519000,-0.257319
1.520000,-0.206856
1.521000,-0.093962
1.522000,0.099478
1.523000,0.243103
1.524000,0.315886
1.525000,0.310063
1.526000,0.248926
1.527000,0.148324
1.528000,-0.028296
1.529000,-0.208797
1.530000,-0.294196
1.531000,-0.342394
1.532000,-0.360832
1.533000,-0.354039
1.534000,-0.336248
1.535000,-0.296136
1.536000,-0.241468
1.537000,-0.177096
1.538000,-0.039941
1.539000,0.155764
1.540000,0.287096
1.541000,0.316856
1.542000,0.298094
1.543000,0.229517
1.544000,0.074570
1.545000,-0.087816
1.546000,-0.250202
1.547000,-0.314898
1.548000,-0.353069
1.549000,-0.357597
1.550000,-0.349187
1.551000,-0.319427
1.552000,-0.282227
1.553000,-0.221089
1.554000,-0.143778
1.555000,0.042546
1.556000,0.202345
1.557000,0.309740
1.558000,0.313298
1.559000,0.290654
1.560000,0.186494
1.561000,0.027019
1.562000,-0.156070
1.563000,-0.267994
1.564000,-0.331719
1.565000,-0.358568
1.566000,-0.358891
1.567000,-0.343688
1.568000,-0.311663
1.569000,-0.260230
1.570000,-0.204915
1.571000,-0.093315
1.572000,0.103360
1.573000,0.246661
1.574000,0.314915
1.575000,0.308122
1.576000,0.247632
1.577000,0.145089
1.578000,-0.028943
1.579000,-0.209768
1.580000,-0.296136
1.581000,-0.340130
1.582000,-0.319427
1.583000,-0.292902
1.584000,-0.279962
1.585000,-0.271229
1.586000,-0.266053
1.587000,-0.262818
1.588000,-0.262818
1.589000,-0.266700
1.590000,-0.267994
1.591000,-0.266053
1.592000,-0.262818
1.593000,-0.257319
1.594000,-0.248262
1.595000,-0.239204
1.596000,-0.230794
1.597000,-0.226265
1.598000,-0.222060
1.599000,-0.218501
1.600000,-0.215914
1.601000,-0.213973
1.602000,-0.213649
1.603000,-0.213973
1.604000,-0.215914
1.605000,-0.222707
1.606000,-0.229823
1.607000,-0.234999
1.608000,-0.236616
1.609000,-0.235969
1.610000,-0.231441
1.611000,-0.224324
1.612000,-0.215590
1.613000,-0.209444
1.614000,-0.206209
1.615000,-0.202651
1.616000,-0.199740
1.617000,-0.197799
1.618000,-0.196828
1.619000,-0.196505
1.620000,-0.198122
1.621000,-0.201357
1.622000,-0.210738
1.623000,-0.216561
1.624000,-0.221089
1.625000,-0.223354
1.626000,-0.222060
1.627000,-0.217208
1.628000,-0.209768
1.629000,-0.201357
1.630000,-0.197475
1.631000,-0.193917
1.632000,-0.191006
1.633000,-0.188741
1.634000,-0.186801
1.635000,-0.186801
1.636000,-0.187771
1.637000,-0.188741
1.638000,-0.194241
1.639000,-0.202974
1.640000,-0.209768
1.641000,-0.213649
1.642000,-0.215914
1.643000,-0.213002
1.644000,-0.206533
1.645000,-0.198769
1.646000,-0.191653
1.647000,-0.188741
1.648000,-0.185183
1.649000,-0.182919
1.650000,-0.180654
1.651000,-0.179361
1.652000,-0.179684
1.653000,-0.180654
1.654000,-0.182272
1.655000,-0.190682
1.656000,-0.198446
1.657000,-0.203945
1.658000,-0.207503
1.659000,-0.208797
1.660000,-0.204268
1.661000,-0.197799
1.662000,-0.190035
1.663000,-0.184536
1.664000,-0.180978
1.665000,-0.178390
1.666000,-0.176126
1.667000,-0.174508
1.668000,-0.173214
1.669000,-0.173861
1.670000,-0.175479
1.671000,-0.179361
1.672000,-0.187771
1.673000,-0.195211
1.674000,-0.200710
1.675000,-0.203298
1.676000,-0.201034
1.677000,-0.198446
1.678000,-0.190035
1.679000,-0.181625
1.680000,-0.178714
1.681000,-0.175802
1.682000,0.313945
1.683000,0.278362
1.684000,0.274804
1.685000,0.294536
1.686000,0.316856
1.687000,0.331089
1.688000,0.353086
1.689000,0.355027
1.690000,0.346616
1.691000,0.327208
1.692000,0.302623
1.693000,0.228223
1.694000,0.070689
1.695000,-0.091698
1.696000,-0.248585
1.697000,-0.314898
1.698000,-0.350157
1.699000,-0.355333
1.700000,-0.347570
1.701000,-0.318456
1.702000,-0.280286
1.703000,-0.221089
1.704000,-0.142484
1.705000,0.050310
1.706000,0.206550
1.707000,0.310387
1.708000,0.312328
1.709000,0.287743
1.710000,0.182612
1.711000,0.026049
1.712000,-0.160599
1.713000,-0.270582
1.714000,-0.331072
1.715000,-0.360185
1.716000,-0.357921
1.717000,-0.343688
1.718000,-0.310370
1.719000,-0.256349
1.720000,-0.202004
1.721000,-0.087492
1.722000,0.105624
1.723000,0.251514
1.724000,0.315886
1.725000,0.308769
1.726000,0.247955
1.727000,0.138943
1.728000,-0.032501
1.729000,-0.211385
1.730000,-0.298401
1.731000,-0.344335
1.732000,-0.361156
1.733000,-0.353716
1.734000,-0.334630
1.735000,-0.293872
1.736000,-0.239851
1.737000,-0.173214
1.738000,-0.033148
1.739000,0.158028
1.740000,0.288714
1.741000,0.319121
1.742000,0.299065
1.743000,0.220460
1.744000,0.071659
1.745000,-0.093962
1.746000,-0.253437
1.747000,-0.314251
1.748000,-0.354686
1.749000,-0.359538
1.750000,-0.349510
1.751000,-0.320074
1.752000,-0.278669
1.753000,-0.221736
1.754000,-0.142160
1.755000,0.051927
1.756000,0.206873
1.757000,0.312328
1.758000,0.312975
1.759000,0.287420
1.760000,0.184230
1.761000,0.021196
1.762000,-0.162863
1.763000,-0.269611
1.764000,-0.331719
1.765000,-0.359862
1.766000,-0.357597
1.767000,-0.343041
1.768000,-0.309399
1.769000,-0.254408
1.770000,-0.201034
1.771000,-0.084581
1.772000,0.107889
1.773000,0.251190
1.774000,0.314915
1.775000,0.305858
1.776000,0.242780
1.777000,0.138619
1.778000,-0.037677
1.779000,-0.212032
1.780000,-0.299371
1.781000,-0.344982
1.782000,-0.314898
1.783000,-0.290961
1.784000,-0.278345
1.785000,-0.270582
1.786000,-0.265082
1.787000,-0.262495
1.788000,-0.263142
1.789000,-0.266376
1.790000,-0.267670
1.791000,-0.266376
1.792000,-0.263142
1.793000,-0.257319
1.794000,-0.247615
1.795000,-0.238881
1.796000,-0.230147
1.797000,-0.225942
1.798000,-0.222707
1.799000,-0.218825
1.800000,-0.216561
1.801000,-0.214943
1.802000,-0.213326
1.803000,-0.214296
1.804000,-0.215914
1.805000,-0.223677
1.806000,-0.230147
1.807000,-0.234675
1.808000,-0.236616
1.809000,-0.236616
1.810000,-0.231117
1.811000,-0.223677
1.812000,-0.215267
1.813000,-0.209768
1.814000,-0.206209
1.815000,-0.202651
1.816000,-0.200063
1.817000,-0.197799
1.818000,-0.197475
1.819000,-0.197475
1.820000,-0.198122
1.821000,-0.202004
1.822000,-0.210091
1.823000,-0.217531
1.824000,-0.221736
1.825000,-0.223677
1.826000,-0.221736
1.827000,-0.216884
1.828000,-0.209444
1.829000,-0.201681
1.830000,-0.197152
1.831000,-0.193270
1.832000,-0.190682
1.833000,-0.188418
1.834000,-0.187124
1.835000,-0.186154
1.836000,-0.187124
1.837000,-0.189065
1.838000,-0.194241
1.839000,-0.201681
1.840000,-0.209768
1.841000,-0.213649
1.842000,-0.214943
1.843000,-0.212679
1.844000,-0.206209
1.845000,-0.198446
1.846000,-0.191653
1.847000,-0.188094
1.848000,-0.185183
1.849000,-0.182595
1.850000,-0.180007
1.851000,-0.179037
1.852000,-0.180007
1.853000,-0.180007
1.854000,-0.183242
1.855000,-0.191006
1.856000,-0.198769
1.857000,-0.204592
1.858000,-0.207503
1.859000,-0.208474
1.860000,-0.203945
1.861000,-0.197799
1.862000,-0.189712
1.863000,-0.184536
1.864000,-0.181301
1.865000,-0.178067
1.866000,-0.175802
1.867000,-0.173538
1.868000,-0.172891
1.869000,-0.173861
1.870000,-0.174832
1.871000,-0.179361
1.872000,-0.188418
1.873000,-0.195858
1.874000,-0.200063
1.875000,-0.202974
1.876000,-0.201357
1.877000,-0.197475
1.878000,-0.190359
1.879000,-0.182272
1.880000,-0.178390
1.881000,-0.175155
1.882000,0.304888
1.883000,0.273510
1.884000,0.272863
1.885000,0.296477
1.886000,0.318150
1.887000,0.331413
1.888000,0.355350
1.889000,0.351792
1.890000,0.347263
1.891000,0.326237
1.892000,0.302300
1.893000,0.223371
1.894000,0.066484
1.895000,-0.097844
1.896000,-0.253761
1.897000,-0.314575
1.898000,-0.353392
1.899000,-0.357274
1.900000,-0.346276
1.901000,-0.319427
1.902000,-0.277051
1.903000,-0.218178
1.904000,-0.141837
1.905000,0.054838
1.906000,0.209138
1.907000,0.312328
1.908000,0.312328
1.909000,0.280950
1.910000,0.180672
1.911000,0.018285
1.912000,-0.167715
1.913000,-0.272846
1.914000,-0.330749
1.915000,-0.360509
1.916000,-0.358244
1.917000,-0.341747
1.918000,-0.309399
1.919000,-0.252790
1.920000,-0.199740
1.921000,-0.081023
1.922000,0.111447
1.923000,0.256366
1.924000,0.316209
1.925000,0.306828
1.926000,0.244397
1.927000,0.135385
1.928000,-0.040265
1.929000,-0.217531
1.930000,-0.300018
1.931000,-0.345952
1.932000,-0.362450
1.933000,-0.353069
1.934000,-0.334630
1.935000,-0.292578
1.936000,-0.234352
1.937000,-0.170950
1.938000,-0.024738
1.939000,0.163851
1.940000,0.292595
1.941000,0.318474
1.942000,0.298741
1.943000,0.220460
1.944000,0.064219
1.945000,-0.100432
1.946000,-0.254408
1.947000,-0.318133
1.948000,-0.353716
1.949000,-0.357921
1.950000,-0.347246
1.951000,-0.318133
1.952000,-0.275110
1.953000,-0.218825
1.954000,-0.143454
1.955000,0.056132
1.956000,0.210108
1.957000,0.314268
1.958000,0.312651
1.959000,0.285155
1.960000,0.178084
1.961000,0.017638
1.962000,-0.169333
1.963000,-0.271876
1.964000,-0.332043
1.965000,-0.361479
1.966000,-0.356627
1.967000,-0.340777
1.968000,-0.309399
1.969000,-0.254731
1.970000,-0.199416
1.971000,-0.080052
1.972000,0.114035
1.973000,0.256042
1.974000,0.316209
1.975000,0.305858
1.976000,0.240839
1.977000,0.131826
1.978000,-0.042205
1.979000,-0.218178
1.980000,-0.300989
1.981000,-0.343688
1.982000,-0.311016
1.983000,-0.289343
1.984000,-0.277375
1.985000,-0.270582
1.986000,-0.265406
1.987000,-0.261524
1.988000,-0.262818
1.989000,-0.266700
1.990000,-0.267670
1.991000,-0.266053
1.992000,-0.262818
1.993000,-0.256672
1.994000,-0.247291
1.995000,-0.238234
1.996000,-0.230794
1.997000,-0.225942
1.998000,-0.222060
1.999000,-0.218825
2.000000,-0.215267
2.001000,-0.213649
2.002000,-0.213973
2.003000,-0.213649
2.004000,-0.215590
2.005000,-0.223677
2.006000,-0.229823
2.007000,-0.235322
2.008000,-0.236940
2.009000,-0.235969
2.010000,-0.231441
2.011000,-0.223677
2.012000,-0.214620
2.013000,-0.209444
2.014000,-0.205886
2.015000,-0.202651
2.016000,-0.199740
2.017000,-0.197475
2.018000,-0.196505
2.019000,-0.197799
2.020000,-0.198122
2.021000,-0.202651
2.022000,-0.210738
2.023000,-0.217855
2.024000,-0.222060
2.025000,-0.223677
2.026000,-0.221736
2.027000,-0.216884
2.028000,-0.209444
2.029000,-0.201681
2.030000,-0.197152
2.031000,-0.193917
2.032000,-0.191329
2.033000,-0.188418
2.034000,-0.187124
2.035000,-0.186801
2.036000,-0.188418
2.037000,-0.189388
2.038000,-0.195211
2.039000,-0.203621
2.040000,-0.210091
2.041000,-0.213326
2.042000,-0.214943
2.043000,-0.212355
2.044000,-0.205562
2.045000,-0.198446
2.046000,-0.191976
2.047000,-0.187771
2.048000,-0.184860
2.049000,-0.182272
2.050000,-0.180007
2.051000,-0.179684
2.052000,-0.179361
2.053000,-0.179361
2.054000,-0.182595
2.055000,-0.191653
2.056000,-0.198769
2.057000,-0.204915
2.058000,-0.207827
2.059000,-0.208150
2.060000,-0.203945
2.061000,-0.197475
2.062000,-0.189388
2.063000,-0.184213
2.064000,-0.180978
2.065000,-0.178067
2.066000,-0.176126
2.067000,-0.173861
2.068000,-0.173214
2.069000,-0.174185
2.070000,-0.175155
2.071000,-0.179684
2.072000,-0.188741
2.073000,-0.195858
2.074000,-0.200387
2.075000,-0.202974
2.076000,-0.201357
2.077000,-0.197152
2.078000,-0.190035
2.079000,-0.181948
2.080000,-0.178067
2.081000,-0.175479
2.082000,0.297771
2.083000,0.274481
2.084000,0.271569
2.085000,0.294860
2.086000,0.316856
2.087000,0.333030
2.088000,0.357615
2.089000,0.351792
2.090000,0.348881
2.091000,0.323649
2.092000,0.303270
2.093000,0.226606
2.094000,0.059690
2.095000,-0.104637
2.096000,-0.255055
2.097000,-0.316516
2.098000,-0.354039
2.099000,-0.358891
2.100000,-0.347246
2.101000,-0.316839
2.102000,-0.275434
2.103000,-0.217208
2.104000,-0.136661
2.105000,0.063896
2.106000,0.216901
2.107000,0.312975
2.108000,0.310063
2.109000,0.281597
2.110000,0.175172
2.111000,0.015374
2.112000,-0.173214
2.113000,-0.273816
2.114000,-0.333337
2.115000,-0.360832
2.116000,-0.356950
2.117000,-0.341100
2.118000,-0.308752
2.119000,-0.252143
2.120000,-0.195858
2.121000,-0.073906
2.122000,0.117593
2.123000,0.259924
2.124000,0.316209
2.125000,0.304888
2.126000,0.240192
2.127000,0.126974
2.128000,-0.047381
2.129000,-0.220766
2.130000,-0.302930
2.131000,-0.345952
2.132000,-0.360185
2.133000,-0.351451
2.134000,-0.331719
2.135000,-0.292578
2.136000,-0.236293
2.137000,-0.165774
2.138000,-0.016974
2.139000,0.168703
2.140000,0.295183
2.141000,0.319444
2.142000,0.300359
2.143000,0.218842
2.144000,0.053544
2.145000,-0.108519
2.146000,-0.257319
2.147000,-0.320074
2.148000,-0.355010
2.149000,-0.356304
2.150000,-0.347893
2.151000,-0.316839
2.152000,-0.273169
2.153000,-0.215267
2.154000,-0.136661
2.155000,0.064866
2.156000,0.214313
2.157000,0.313621
2.158000,0.312004
2.159000,0.280303
2.160000,0.173879
2.161000,0.013433
2.162000,-0.177420
2.163000,-0.277051
2.164000,-0.333983
2.165000,-0.362450
2.166000,-0.356950
2.167000,-0.340453
2.168000,-0.308429
2.169000,-0.251173
2.170000,-0.195858
2.171000,-0.071966
2.172000,0.119211
2.173000,0.261865
2.174000,0.316533
2.175000,0.304888
2.176000,0.244073
2.177000,0.126004
2.178000,-0.048998
2.179000,-0.222060
2.180000,-0.302283
2.181000,-0.345952
2.182000,-0.307458
2.183000,-0.287726
2.184000,-0.276404
2.185000,-0.268964
2.186000,-0.264759
2.187000,-0.261201
2.188000,-0.262818
2.189000,-0.266053
2.190000,-0.267994
2.191000,-0.266053
2.192000,-0.261524
2.193000,-0.256672
2.194000,-0.246644
2.195000,-0.237910
2.196000,-0.230147
2.197000,-0.225295
2.198000,-0.221736
2.199000,-0.218501
2.200000,-0.215590
2.201000,-0.213973
2.202000,-0.213973
2.203000,-0.214296
2.204000,-0.215914
2.205000,-0.224324
2.206000,-0.230794
2.207000,-0.235322
2.208000,-0.236616
2.209000,-0.235646
2.210000,-0.231117
2.211000,-0.223030
2.212000,-0.214943
2.213000,-0.210091
2.214000,-0.205562
2.215000,-0.202328
2.216000,-0.199740
2.217000,-0.197475
2.218000,-0.196828
2.219000,-0.197152
2.220000,-0.197799
2.221000,-0.202974
2.222000,-0.211061
2.223000,-0.217531
2.224000,-0.222060
2.225000,-0.223354
2.226000,-0.221736
2.227000,-0.216884
2.228000,-0.209121
2.229000,-0.200710
2.230000,-0.197152
2.231000,-0.193594
2.232000,-0.191006
2.233000,-0.188741
2.234000,-0.187124
2.235000,-0.186477
2.236000,-0.187448
2.237000,-0.189388
2.238000,-0.195211
2.239000,-0.203945
2.240000,-0.210415
2.241000,-0.213649
2.242000,-0.215267
2.243000,-0.211708
2.244000,-0.205562
2.245000,-0.198446
2.246000,-0.191653
2.247000,-0.187124
2.248000,-0.185183
2.249000,-0.182272
2.250000,-0.180331
2.251000,-0.179684
2.252000,-0.179684
2.253000,-0.180654
2.254000,-0.182919
2.255000,-0.191976
2.256000,-0.199093
2.257000,-0.205239
2.258000,-0.207827
2.259000,-0.208150
2.260000,-0.204268
2.261000,-0.197475
2.262000,-0.188418
2.263000,-0.184536
2.264000,-0.181625
2.265000,-0.177096
2.266000,-0.176126
2.267000,-0.173861
2.268000,-0.173214
2.269000,-0.174185
2.270000,-0.174832
2.271000,-0.180331
2.272000,-0.188741
2.273000,-0.195534
2.274000,-0.200710
2.275000,-0.202974
2.276000,-0.202004
2.277000,-0.196828
2.278000,-0.189712
2.279000,-0.182272
2.280000,-0.178067
2.281000,-0.174832
2.282000,0.294213
2.283000,0.270922
2.284000,0.272540
2.285000,0.292919
2.286000,0.316856
2.287000,0.333354
2.288000,0.357615
2.289000,0.352115
2.290000,0.346293
2.291000,0.323649
2.292000,0.300682
2.293000,0.223694
2.294000,0.053868
2.295000,-0.114341
2.296000,-0.254731
2.297000,-0.316839
2.298000,-0.354039
2.299000,-0.357274
2.300000,-0.344658
2.301000,-0.316192
2.302000,-0.271876
2.303000,-0.214943
2.304000,-0.134397
2.305000,0.069071
2.306000,0.221106
2.307000,0.315239
2.308000,0.311034
2.309000,0.272863
2.310000,0.171291
2.311000,0.006963
2.312000,-0.182272
2.313000,-0.278992
2.314000,-0.334307
2.315000,-0.359862
2.316000,-0.357921
2.317000,-0.341424
2.318000,-0.306164
2.319000,-0.250202
2.320000,-0.193270
2.321000,-0.067437
2.322000,0.124710
2.323000,0.265100
2.324000,0.316533
2.325000,0.305211
2.326000,0.239868
2.327000,0.118887
2.328000,-0.052880
2.329000,-0.224648
2.330000,-0.303576
2.331000,-0.347246
2.332000,-0.359215
2.333000,-0.352422
2.334000,-0.330102
2.335000,-0.290637
2.336000,-0.235322
2.337000,-0.161569
2.338000,-0.005329
2.339000,0.176790
2.340000,0.299065
2.341000,0.316856
2.342000,0.297124
2.343000,0.215284
2.344000,0.047722
2.345000,-0.118546
2.346000,-0.258613
2.347000,-0.318780
2.348000,-0.353392
2.349000,-0.356304
2.350000,-0.344335
2.351000,-0.317486
2.352000,-0.271876
2.353000,-0.214943
2.354000,-0.132780
2.355000,0.072630
2.356000,0.224341
2.357000,0.316533
2.358000,0.309416
2.359000,0.270599
2.360000,0.168703
2.361000,0.004052
2.362000,-0.182595
2.363000,-0.276728
2.364000,-0.335277
2.365000,-0.359215
2.366000,-0.357597
2.367000,-0.339806
2.368000,-0.305517
2.369000,-0.247291
2.370000,-0.194564
2.371000,-0.063879
2.372000,0.124710
2.373000,0.265747
2.374000,0.318150
2.375000,0.304888
2.376000,0.234046
2.377000,0.117270
2.378000,-0.055792
2.379000,-0.225618
2.380000,-0.303900
2.381000,-0.346923
2.382000,-0.305194
2.383000,-0.286109
2.384000,-0.275110
2.385000,-0.268317
2.386000,-0.263789
2.387000,-0.260877
2.388000,-0.262818
2.389000,-0.266053
2.390000,-0.267347
2.391000,-0.265729
2.392000,-0.262171
2.393000,-0.255702
2.394000,-0.246644
2.395000,-0.237263
2.396000,-0.229823
2.397000,-0.225295
2.398000,-0.221089
2.399000,-0.218178
2.400000,-0.215590
2.401000,-0.213973
2.402000,-0.213002
2.403000,-0.213649
2.404000,-0.216237
2.405000,-0.224001
2.406000,-0.230470
2.407000,-0.235322
2.408000,-0.236293
2.409000,-0.234999
2.410000,-0.230147
2.411000,-0.222707
2.412000,-0.213649
2.413000,-0.209121
2.414000,-0.205562
2.415000,-0.202328
2.416000,-0.199416
2.417000,-0.197152
2.418000,-0.197475
2.419000,-0.198122
2.420000,-0.198122
2.421000,-0.202974
2.422000,-0.211385
2.423000,-0.217531
2.424000,-0.222060
2.425000,-0.223677
2.426000,-0.221089
2.427000,-0.216237
2.428000,-0.208474
2.429000,-0.200387
2.430000,-0.196181
2.431000,-0.193270
2.432000,-0.190682
2.433000,-0.188741
2.434000,-0.186154
2.435000,-0.186477
2.436000,-0.187448
2.437000,-0.189388
2.438000,-0.195858
2.439000,-0.204268
2.440000,-0.210091
2.441000,-0.213973
2.442000,-0.214620
2.443000,-0.212355
2.444000,-0.205239
2.445000,-0.197799
2.446000,-0.191006
2.447000,-0.187771
2.448000,-0.185183
2.449000,-0.182272
2.450000,-0.180331
2.451000,-0.179361
2.452000,-0.179037
2.453000,-0.180978
2.454000,-0.183242
2.455000,-0.191976
2.456000,-0.199740
2.457000,-0.204915
2.458000,-0.207827
2.459000,-0.207827
2.460000,-0.203621
2.461000,-0.196828
2.462000,-0.188741
2.463000,-0.184536
2.464000,-0.180978
2.465000,-0.178067
2.466000,-0.175479
2.467000,-0.174185
2.468000,-0.172567
2.469000,-0.174185
2.470000,-0.174832
2.471000,-0.180654
2.472000,-0.189388
2.473000,-0.196181
2.474000,-0.200710
2.475000,-0.202651
2.476000,-0.201357
2.477000,-0.196828
2.478000,-0.189065
2.479000,-0.181625
2.480000,-0.177743
2.481000,0.392874
2.482000,0.288390
2.483000,0.268981
2.484000,0.271246
2.485000,0.293566
2.486000,0.316533
2.487000,0.334001
2.488000,0.360526
2.489000,0.351145
2.490000,0.344352
2.491000,0.324296
2.492000,0.300682
2.493000,0.209461
2.494000,0.048045
2.495000,-0.121134
2.496000,-0.258613
2.497000,-0.319427
2.498000,-0.355657
2.499000,-0.358891
2.500000,-0.344011
2.501000,-0.316192
2.502000,-0.266700
2.503000,-0.214943
2.504000,-0.127604
2.505000,0.076511
2.506000,0.224665
2.507000,0.312975
2.508000,0.310063
2.509000,0.263806
2.510000,0.166439
2.511000,-0.001124
2.512000,-0.187771
2.513000,-0.280609
2.514000,-0.336571
2.515000,-0.360832
2.516000,-0.355980
2.517000,-0.338189
2.518000,-0.305517
2.519000,-0.249555
2.520000,-0.189065
2.521000,-0.061938
2.522000,0.132473
2.523000,0.268334
2.524000,0.318150
2.525000,0.304888
2.526000,0.237604
2.527000,0.112741
2.528000,-0.060644
2.529000,-0.231117
2.530000,-0.305841
2.531000,-0.349834
2.532000,-0.361156
2.533000,-0.350804
2.534000,-0.328161
2.535000,-0.288696
2.536000,-0.231441
2.537000,-0.158011
2.538000,0.007287
2.539000,0.181642
2.540000,0.302300
2.541000,0.315562
2.542000,0.295830
2.543000,0.209138
2.544000,0.044487
2.545000,-0.125663
2.546000,-0.260877
2.547000,-0.322985
2.548000,-0.356950
2.549000,-0.357921
2.550000,-0.346276
2.551000,-0.317486
2.552000,-0.266700
2.553000,-0.211061
2.554000,-0.124369
2.555000,0.073924
2.556000,0.229840
2.557000,0.314592
2.558000,0.310387
2.559000,0.266394
2.560000,0.163527
2.561000,-0.002418
2.562000,-0.189388
2.563000,-0.283521
2.564000,-0.337865
2.565000,-0.361479
2.566000,-0.355980
2.567000,-0.339159
2.568000,-0.304547
2.569000,-0.247291
2.570000,-0.190359
2.571000,-0.058379
2.572000,0.130856
2.573000,0.266717
2.574000,0.316533
2.575000,0.303594
2.576000,0.238574
2.577000,0.106918
2.578000,-0.060644
2.579000,-0.232411
2.580000,-0.305841
2.581000,-0.363097
2.582000,-0.302606
2.583000,-0.284815
2.584000,-0.274463
2.585000,-0.267670
2.586000,-0.263142
2.587000,-0.260554
2.588000,-0.262818
2.589000,-0.266376
2.590000,-0.267347
2.591000,-0.265406
2.592000,-0.262171
2.593000,-0.255378
2.594000,-0.245997
2.595000,-0.237263
2.596000,-0.229500
2.597000,-0.224971
2.598000,-0.221413
2.599000,-0.218178
2.600000,-0.215590
2.601000,-0.213326
2.602000,-0.214296
2.603000,-0.213649
2.604000,-0.216561
2.605000,-0.224001
2.606000,-0.230147
2.607000,-0.234999
2.608000,-0.236616
2.609000,-0.234675
2.610000,-0.229823
2.611000,-0.222383
2.612000,-0.213649
2.613000,-0.208797
2.614000,-0.205562
2.615000,-0.202004
2.616000,-0.199093
2.617000,-0.197475
2.618000,-0.196505
2.619000,-0.197152
2.620000,-0.198446
2.621000,-0.202974
2.622000,-0.211708
2.623000,-0.217855
2.624000,-0.222707
2.625000,-0.223354
2.626000,-0.221413
2.627000,-0.215590
2.628000,-0.208150
2.629000,-0.200063
2.630000,-0.196505
2.631000,-0.193594
2.632000,-0.191006
2.633000,-0.188094
2.634000,-0.187124
2.635000,-0.186477
2.636000,-0.187771
2.637000,-0.189065
2.638000,-0.196181
2.639000,-0.204268
2.640000,-0.210738
2.641000,-0.213973
2.642000,-0.215267
2.643000,-0.211708
2.644000,-0.204915
2.645000,-0.197152
2.646000,-0.191006
2.647000,-0.188094
2.648000,-0.184536
2.649000,-0.182272
2.650000,-0.180007
2.651000,-0.179037
2.652000,-0.179684
2.653000,-0.180978
2.654000,-0.182595
2.655000,-0.191653
2.656000,-0.199416
2.657000,-0.204915
2.658000,-0.207827
2.659000,-0.207180
2.660000,-0.203621
2.661000,-0.196505
2.662000,-0.188418
2.663000,-0.183242
2.664000,-0.180331
2.665000,-0.177420
2.666000,-0.174832
2.667000,-0.173861
2.668000,-0.173214
2.669000,-0.174185
2.670000,-0.175479
2.671000,-0.180654
2.672000,-0.189388
2.673000,-0.197152
2.674000,-0.201357
2.675000,-0.203621
2.676000,-0.201357
2.677000,-0.196181
2.678000,-0.189388
2.679000,-0.181301
2.680000,-0.178067
2.681000,0.353733
2.682000,0.286773
2.683000,0.265100
2.684000,0.272216
2.685000,0.292595
2.686000,0.316533
2.687000,0.334648
2.688000,0.362143
2.689000,0.351145
2.690000,0.342735
2.691000,0.320738
2.692000,0.296801
2.693000,0.206226
2.694000,0.042223
2.695000,-0.130192
2.696000,-0.260230
2.697000,-0.322662
2.698000,-0.355980
2.699000,-0.358244
2.700000,-0.345629
2.701000,-0.313604
2.702000,-0.265406
2.703000,-0.210415
2.704000,-0.115635
2.705000,0.086539
2.706000,0.235016
2.707000,0.314268
2.708000,0.311034
2.709000,0.257336
2.710000,0.162233
2.711000,-0.009858
2.712000,-0.193594
2.713000,-0.287079
2.714000,-0.338189
2.715000,-0.361803
2.716000,-0.356304
2.717000,-0.338512
2.718000,-0.301312
2.719000,-0.246968
2.720000,-0.187124
2.721000,-0.056762
2.722000,0.136678
2.723000,0.274481
2.724000,0.317503
2.725000,0.303917
2.726000,0.234693
2.727000,0.098184
2.728000,-0.064849
2.729000,-0.237587
2.730000,-0.307458
2.731000,-0.350481
2.732000,-0.359538
2.733000,-0.351128
2.734000,-0.324603
2.735000,-0.286756
2.736000,-0.229500
2.737000,-0.153482
2.738000,0.017962
2.739000,0.186818
2.740000,0.303594
2.741000,0.315562
2.742000,0.292595
2.743000,0.204933
2.744000,0.041252
2.745000,-0.134397
2.746000,-0.263789
2.747000,-0.325250
2.748000,-0.357921
2.749000,-0.357597
2.750000,-0.343364
2.751000,-0.312634
2.752000,-0.265406
2.753000,-0.210091
2.754000,-0.112724
2.755000,0.087186
2.756000,0.238251
2.757000,0.313945
2.758000,0.311034
2.759000,0.257013
2.760000,0.158999
2.761000,-0.012445
2.762000,-0.197152
2.763000,-0.287079
2.764000,-0.338189
2.765000,-0.360832
2.766000,-0.355980
2.767000,-0.338189
2.768000,-0.301312
2.769000,-0.243409
2.770000,-0.186801
2.771000,-0.055145
2.772000,0.139913
2.773000,0.274804
2.774000,0.316533
2.775000,0.302300
2.776000,0.233722
2.777000,0.098184
2.778000,-0.070025
2.779000,-0.243086
2.780000,-0.307135
2.781000,-0.345629
2.782000,-0.299371
2.783000,-0.283197
2.784000,-0.273493
2.785000,-0.267023
2.786000,-0.262495
2.787000,-0.260230
2.788000,-0.263142
2.789000,-0.265406
2.790000,-0.266700
2.791000,-0.265082
2.792000,-0.261524
2.793000,-0.254731
2.794000,-0.245674
2.795000,-0.235646
2.796000,-0.229176
2.797000,-0.224971
2.798000,-0.220442
2.799000,-0.217855
2.800000,-0.215267
2.801000,-0.213649
2.802000,-0.213326
2.803000,-0.214296
2.804000,-0.216884
2.805000,-0.224971
2.806000,-0.230794
2.807000,-0.235322
2.808000,-0.236293
2.809000,-0.234028
2.810000,-0.230147
2.811000,-0.222383
2.812000,-0.213326
2.813000,-0.208797
2.814000,-0.205239
2.815000,-0.201357
2.816000,-0.199416
2.817000,-0.196828
2.818000,-0.196828
2.819000,-0.197475
2.820000,-0.198769
2.821000,-0.203298
2.822000,-0.211708
2.823000,-0.218501
2.824000,-0.221736
2.825000,-0.223030
2.826000,-0.221089
2.827000,-0.215267
2.828000,-0.208474
2.829000,-0.199093
2.830000,-0.196505
2.831000,-0.193594
2.832000,-0.190035
2.833000,-0.187771
2.834000,-0.186477
2.835000,-0.187124
2.836000,-0.187124
2.837000,-0.189388
2.838000,-0.197152
2.839000,-0.203945
2.840000,-0.211061
2.841000,-0.214296
2.842000,-0.214943
2.843000,-0.211708
2.844000,-0.204268
2.845000,-0.196505
2.846000,-0.190682
2.847000,-0.188094
2.848000,-0.184536
2.849000,-0.181948
2.850000,-0.180007
2.851000,-0.179037
2.852000,-0.179684
2.853000,-0.180654
2.854000,-0.183566
2.855000,-0.192623
2.856000,-0.200063
2.857000,-0.205239
2.858000,-0.208150
2.859000,-0.206856
2.860000,-0.202328
2.861000,-0.194888
2.862000,-0.188094
2.863000,-0.183889
2.864000,-0.180654
2.865000,-0.177743
2.866000,-0.175479
2.867000,-0.173861
2.868000,-0.173538
2.869000,-0.173861
2.870000,-0.174832
2.871000,-0.180978
2.872000,-0.189712
2.873000,-0.196828
2.874000,-0.201357
2.875000,-0.202974
2.876000,-0.201357
2.877000,-0.195534
2.878000,-0.188094
2.879000,-0.180654
2.880000,-0.177096
2.881000,0.341441
2.882000,0.280303
2.883000,0.263482
2.884000,0.270599
2.885000,0.292595
2.886000,0.318474
2.887000,0.334648
2.888000,0.362467
2.889000,0.351792
2.890000,0.341117
2.891000,0.320091
2.892000,0.295183
2.893000,0.196846
2.894000,0.038341
2.895000,-0.138926
2.896000,-0.262495
2.897000,-0.324603
2.898000,-0.356950
2.899000,-0.357597
2.900000,-0.345305
2.901000,-0.312957
2.902000,-0.261201
2.903000,-0.208797
2.904000,-0.109166
2.905000,0.091715
2.906000,0.239545
2.907000,0.315886
2.908000,0.309093
2.909000,0.255072
2.910000,0.155117
2.911000,-0.017621
2.912000,-0.196828
2.913000,-0.291608
2.914000,-0.338189
2.915000,-0.358891
2.916000,-0.354363
2.917000,-0.337542
2.918000,-0.299371
2.919000,-0.241468
2.920000,-0.182919
2.921000,-0.048998
2.922000,0.143795
2.923000,0.278362
2.924000,0.318797
2.925000,0.304241
2.926000,0.230164
2.927000,0.088804
2.928000,-0.074877
2.929000,-0.244380
2.930000,-0.312310
2.931000,-0.352745
2.932000,-0.358244
2.933000,-0.350481
2.934000,-0.321044
2.935000,-0.286756
2.936000,-0.225942
2.937000,-0.150247
2.938000,0.028313
2.939000,0.193934
2.940000,0.302947
2.941000,0.312651
2.942000,0.290008
2.943000,0.194581
2.944000,0.033489
2.945000,-0.142160
2.946000,-0.265406
2.947000,-0.325573
2.948000,-0.357921
2.949000,-0.357921
2.950000,-0.344982
2.951000,-0.311987
2.952000,-0.262171
2.953000,-0.207180
2.954000,-0.105284
2.955000,0.091068
2.956000,0.240839
2.957000,0.316533
2.958000,0.306828
2.959000,0.255719
2.960000,0.157381
2.961000,-0.017621
2.962000,-0.201034
2.963000,-0.291284
2.964000,-0.339159
2.965000,-0.357597
2.966000,-0.355010
2.967000,-0.340130
2.968000,-0.298724
2.969000,-0.245674
2.970000,-0.180978
2.971000,-0.047381
2.972000,0.145412
2.973000,0.278686
2.974000,0.315886
2.975000,0.301329
2.976000,0.229193
2.977000,0.082657
2.978000,-0.075847
2.979000,-0.245027
2.980000,-0.309076
2.981000,-0.336248
2.982000,-0.297430
2.983000,-0.281580
2.984000,-0.272199
2.985000,-0.266053
2.986000,-0.262495
2.987000,-0.260230
2.988000,-0.262818
2.989000,-0.265406
2.990000,-0.266700
2.991000,-0.264436
2.992000,-0.261524
2.993000,-0.254408
2.994000,-0.245027
2.995000,-0.235969
2.996000,-0.228853
2.997000,-0.224648
2.998000,-0.220766
2.999000,-0.217208
3.000000,-0.215267
3.001000,-0.213326
3.002000,-0.213649
3.003000,-0.214296
3.004000,-0.216884
3.005000,-0.224971
3.006000,-0.231117
3.007000,-0.234999
3.008000,-0.235969
3.009000,-0.234352
3.010000,-0.229500
3.011000,-0.221736
3.012000,-0.213002
3.013000,-0.208474
3.014000,-0.205239
3.015000,-0.202328
3.016000,-0.197799
3.017000,-0.196828
3.018000,-0.195858
3.019000,-0.197475
3.020000,-0.198122
3.021000,-0.203621
3.022000,-0.212032
3.023000,-0.218501
3.024000,-0.222060
3.025000,-0.223354
3.026000,-0.220766
3.027000,-0.214943
3.028000,-0.207503
3.029000,-0.199416
3.030000,-0.195858
3.031000,-0.193270
3.032000,-0.190359
3.033000,-0.187771
3.034000,-0.185830
3.035000,-0.185830
3.036000,-0.188418
3.037000,-0.190359
3.038000,-0.197152
3.039000,-0.204592
3.040000,-0.211061
3.041000,-0.213973
3.042000,-0.214620
3.043000,-0.211385
3.044000,-0.204592
3.045000,-0.196505
3.046000,-0.191006
3.047000,-0.187448
3.048000,-0.184213
3.049000,-0.181948
3.050000,-0.180007
3.051000,-0.179037
3.052000,-0.180007
3.053000,-0.180654
3.054000,-0.184213
3.055000,-0.193270
3.056000,-0.200063
3.057000,-0.205562
3.058000,-0.207827
3.059000,-0.207180
3.060000,-0.202974
3.061000,-0.195858
3.062000,-0.188094
3.063000,-0.183566
3.064000,-0.180331
3.065000,-0.178067
3.066000,-0.175802
3.067000,-0.173861
3.068000,-0.173861
3.069000,-0.173538
3.070000,-0.175802
3.071000,-0.180654
3.072000,-0.189065
3.073000,-0.197152
3.074000,-0.200710
3.075000,-0.202328
3.076000,-0.200710
3.077000,-0.194564
3.078000,-0.188094
3.079000,-0.180978
3.080000,-0.177096
3.081000,0.328502
3.082000,0.277392
3.083000,0.259924
3.084000,0.270599
3.085000,0.293889
3.086000,0.319121
3.087000,0.333354
3.088000,0.362143
3.089000,0.352439
3.090000,0.339500
3.091000,0.318797
3.092000,0.291948
3.093000,0.193287
3.094000,0.030901
3.095000,-0.146689
3.096000,-0.264436
3.097000,-0.325573
3.098000,-0.357597
3.099000,-0.357921
3.100000,-0.342717
3.101000,-0.311663
3.102000,-0.259583
3.103000,-0.204592
3.104000,-0.100108
3.105000,0.096244
3.106000,0.245044
3.107000,0.317827
3.108000,0.307475
3.109000,0.249249
3.110000,0.149941
3.111000,-0.022797
3.112000,-0.204915
3.113000,-0.291284
3.114000,-0.341100
3.115000,-0.358244
3.116000,-0.354039
3.117000,-0.338189
3.118000,-0.298077
3.119000,-0.240498
3.120000,-0.180978
3.121000,-0.041882
3.122000,0.151235
3.123000,0.282244
3.124000,0.317503
3.125000,0.303270
3.126000,0.227253
3.127000,0.080717
3.128000,-0.081023
3.129000,-0.249232
3.130000,-0.313281
3.131000,-0.352098
3.132000,-0.359215
3.133000,-0.350481
3.134000,-0.322338
3.135000,-0.283521
3.136000,-0.223677
3.137000,-0.146366
3.138000,0.037694
3.139000,0.198463
3.140000,0.306505
3.141000,0.314915
3.142000,0.292595
3.143000,0.189406
3.144000,0.031871
3.145000,-0.150571
3.146000,-0.266700
3.147000,-0.328808
3.148000,-0.358568
3.149000,-0.359215
3.150000,-0.343688
3.151000,-0.311016
3.152000,-0.257319
3.153000,-0.204915
3.154000,-0.096226
3.155000,0.097861
3.156000,0.246014
3.157000,0.317827
3.158000,0.309093
3.159000,0.250220
3.160000,0.147677
3.161000,-0.025708
3.162000,-0.207180
3.163000,-0.292578
3.164000,-0.340453
3.165000,-0.360832
3.166000,-0.354039
3.167000,-0.336895
3.168000,-0.297754
3.169000,-0.241468
3.170000,-0.179037
3.171000,-0.042205
3.172000,0.156411
3.173000,0.285155
3.174000,0.317503
3.175000,0.301006
3.176000,0.229193
3.177000,0.076835
3.178000,-0.082640
3.179000,-0.247615
3.180000,-0.313604
3.181000,-0.328161
3.182000,-0.296136
3.183000,-0.280609
3.184000,-0.272199
3.185000,-0.265729
3.186000,-0.261524
3.187000,-0.259583
3.188000,-0.263465
3.189000,-0.265406
3.190000,-0.265729
3.191000,-0.264759
3.192000,-0.261848
3.193000,-0.254408
3.194000,-0.245350
3.195000,-0.235322
3.196000,-0.228529
3.197000,-0.224971
3.198000,-0.220442
3.199000,-0.217208
3.200000,-0.214620
3.201000,-0.213649
3.202000,-0.213649
3.203000,-0.213973
3.204000,-0.217531
3.205000,-0.224971
3.206000,-0.231117
3.207000,-0.234999
3.208000,-0.236293
3.209000,-0.233705
3.210000,-0.228853
3.211000,-0.221089
3.212000,-0.212355
3.213000,-0.208797
3.214000,-0.204592
3.215000,-0.201357
3.216000,-0.199093
3.217000,-0.197475
3.218000,-0.196505
3.219000,-0.197475
3.220000,-0.198446
3.221000,-0.203945
3.222000,-0.212679
3.223000,-0.219148
3.224000,-0.222707
3.225000,-0.223354
3.226000,-0.221089
3.227000,-0.214296
3.228000,-0.207503
3.229000,-0.199740
3.230000,-0.195534
3.231000,-0.192300
3.232000,-0.189712
3.233000,-0.187771
3.234000,-0.187124
3.235000,-0.186477
3.236000,-0.187448
3.237000,-0.190359
3.238000,-0.197799
3.239000,-0.204915
3.240000,-0.211061
3.241000,-0.213973
3.242000,-0.214296
3.243000,-0.210738
3.244000,-0.203945
3.245000,-0.196505
3.246000,-0.190359
3.247000,-0.187448
3.248000,-0.184536
3.249000,-0.181948
3.250000,-0.179684
3.251000,-0.179037
3.252000,-0.179684
3.253000,-0.180007
3.254000,-0.184536
3.255000,-0.193594
3.256000,-0.200063
3.257000,-0.205239
3.258000,-0.208150
3.259000,-0.206856
3.260000,-0.202974
3.261000,-0.195534
3.262000,-0.187448
3.263000,-0.183566
3.264000,-0.180654
3.265000,-0.177096
3.266000,-0.175155
3.267000,-0.173861
3.268000,-0.173214
3.269000,-0.173861
3.270000,-0.175479
3.271000,-0.181301
3.272000,-0.190035
3.273000,-0.196828
3.274000,-0.201357
3.275000,-0.202974
3.276000,-0.200710
3.277000,-0.195211
3.278000,-0.187771
3.279000,-0.180654
3.280000,-0.176773
3.281000,0.317503
3.282000,0.270922
3.283000,0.259600
3.284000,0.268981
3.285000,0.291301
3.286000,0.317827
3.287000,0.335618
3.288000,0.362790
3.289000,0.350822
3.290000,0.341117
3.291000,0.319121
3.292000,0.293242
3.293000,0.186818
3.294000,0.030254
3.295000,-0.154776
3.296000,-0.266053
3.297000,-0.328808
3.298000,-0.358568
3.299000,-0.358891
3.300000,-0.342394
3.301000,-0.307782
3.302000,-0.255702
3.303000,-0.202328
3.304000,-0.089757
3.305000,0.106595
3.306000,0.251514
3.307000,0.316856
3.308000,0.306505
3.309000,0.249573
3.310000,0.143148
3.311000,-0.031531
3.312000,-0.210091
3.313000,-0.295166
3.314000,-0.341424
3.315000,-0.359862
3.316000,-0.350157
3.317000,-0.337218
3.318000,-0.296136
3.319000,-0.240498
3.320000,-0.173538
3.321000,-0.033795
3.322000,0.157705
3.323000,0.288714
3.324000,0.317503
3.325000,0.300682
3.326000,0.227253
3.327000,0.070689
3.328000,-0.089433
3.329000,-0.249879
3.330000,-0.313928
3.331000,-0.352745
3.332000,-0.359538
3.333000,-0.348217
3.334000,-0.320397
3.335000,-0.281580
3.336000,-0.220766
3.337000,-0.143131
3.338000,0.045457
3.339000,0.205903
3.340000,0.306828
3.341000,0.314268
3.342000,0.285802
3.343000,0.185524
3.344000,0.025078
3.345000,-0.160275
3.346000,-0.265729
3.347000,-0.331719
3.348000,-0.360832
3.349000,-0.360509
3.350000,-0.343688
3.351000,-0.310693
3.352000,-0.256349
3.353000,-0.203298
3.354000,-0.087816
3.355000,0.105301
3.356000,0.250867
3.357000,0.316209
3.358000,0.307152
3.359000,0.247308
3.360000,0.141207
3.361000,-0.034118
3.362000,-0.211708
3.363000,-0.295813
3.364000,-0.343688
3.365000,-0.359538
3.366000,-0.353392
3.367000,-0.335601
3.368000,-0.295489
3.369000,-0.239851
3.370000,-0.173538
3.371000,-0.035089
3.372000,0.157705
3.373000,0.286449
3.374000,0.318150
3.375000,0.301006
3.376000,0.226929
3.377000,0.071983
3.378000,-0.095256
3.379000,-0.254408
3.380000,-0.314251
3.381000,-0.322338
3.382000,-0.293872
3.383000,-0.279639
3.384000,-0.270582
3.385000,-0.265406
3.386000,-0.261524
3.387000,-0.259260
3.388000,-0.263465
3.389000,-0.265729
3.390000,-0.266376
3.391000,-0.264436
3.392000,-0.260554
3.393000,-0.253437
3.394000,-0.244380
3.395000,-0.234675
3.396000,-0.228206
3.397000,-0.223354
3.398000,-0.220442
3.399000,-0.217208
3.400000,-0.213649
3.401000,-0.213326
3.402000,-0.213649
3.403000,-0.213649
3.404000,-0.217531
3.405000,-0.225942
3.406000,-0.231441
3.407000,-0.235322
3.408000,-0.236293
3.409000,-0.234352
3.410000,-0.229500
3.411000,-0.221089
3.412000,-0.212355
3.413000,-0.208150
3.414000,-0.205239
3.415000,-0.201357
3.416000,-0.198769
3.417000,-0.196828
3.418000,-0.196505
3.419000,-0.197152
3.420000,-0.198769
3.421000,-0.203621
3.422000,-0.212679
3.423000,-0.218825
3.424000,-0.222060
3.425000,-0.223354
3.426000,-0.220766
3.427000,-0.213649
3.428000,-0.206533
3.429000,-0.199093
3.430000,-0.196181
3.431000,-0.193270
3.432000,-0.190359
3.433000,-0.187771
3.434000,-0.187124
3.435000,-0.186801
3.436000,-0.187448
3.437000,-0.189712
3.438000,-0.197799
3.439000,-0.205886
3.440000,-0.211385
3.441000,-0.213649
3.442000,-0.214296
3.443000,-0.210738
3.444000,-0.203621
3.445000,-0.195858
3.446000,-0.191329
3.447000,-0.187771
3.448000,-0.184860
3.449000,-0.181625
3.450000,-0.179684
3.451000,-0.179037
3.452000,-0.180007
3.453000,-0.180007
3.454000,-0.185183
3.455000,-0.193594
3.456000,-0.200387
3.457000,-0.205562
3.458000,-0.208150
3.459000,-0.206856
3.460000,-0.202651
3.461000,-0.195211
3.462000,-0.187124
3.463000,-0.183889
3.464000,-0.180331
3.465000,-0.177420
3.466000,-0.174832
3.467000,-0.173538
3.468000,-0.173214
3.469000,-0.174185
3.470000,-0.176126
3.471000,-0.181625
3.472000,-0.190359
3.473000,-0.197799
3.474000,-0.201681
3.475000,-0.202974
3.476000,-0.200710
3.477000,-0.194564
3.478000,-0.187771
3.479000,-0.180654
3.480000,-0.177420
3.481000,0.307799
3.482000,0.271246
3.483000,0.251837
3.484000,0.267687
3.485000,0.289684
3.486000,0.316209
3.487000,0.333677
3.488000,0.362467
3.489000,0.349528
3.490000,0.341764
3.491000,0.317180
3.492000,0.288390
3.493000,0.181319
3.494000,0.022490
3.495000,-0.163834
3.496000,-0.268317
3.497000,-0.329455
3.498000,-0.359215
3.499000,-0.357921
3.500000,-0.342070
3.501000,-0.308105
3.502000,-0.256672
3.503000,-0.199093
3.504000,-0.085552
3.505000,0.106918
3.506000,0.252807
3.507000,0.318150
3.508000,0.306181
3.509000,0.244073
3.510000,0.138619
3.511000,-0.038324
3.512000,-0.215914
3.513000,-0.298724
3.514000,-0.345305
3.515000,-0.360509
3.516000,-0.352098
3.517000,-0.334307
3.518000,-0.294519
3.519000,-0.239528
3.520000,-0.170627
3.521000,-0.028619
3.522000,0.161586
3.523000,0.290978
3.524000,0.317180
3.525000,0.298418
3.526000,0.220460
3.527000,0.063896
3.528000,-0.097197
3.529000,-0.254731
3.530000,-0.316516
3.531000,-0.354363
3.532000,-0.358891
3.533000,-0.344982
3.534000,-0.319750
3.535000,-0.280286
3.536000,-0.217531
3.537000,-0.140220
3.538000,0.055162
3.539000,0.206550
3.540000,0.311034
3.541000,0.312004
3.542000,0.283538
3.543000,0.179054
3.544000,0.021843
3.545000,-0.164157
3.546000,-0.272522
3.547000,-0.332690
3.548000,-0.357921
3.549000,-0.356627
3.550000,-0.341100
3.551000,-0.310046
3.552000,-0.253437
3.553000,-0.198122
3.554000,-0.082640
3.555000,0.111771
3.556000,0.256366
3.557000,0.316856
3.558000,0.306181
3.559000,0.242780
3.560000,0.133120
3.561000,-0.039941
3.562000,-0.215914
3.563000,-0.299371
3.564000,-0.344982
3.565000,-0.360509
3.566000,-0.352745
3.567000,-0.333337
3.568000,-0.294843
3.569000,-0.238234
3.570000,-0.169980
3.571000,-0.025061
3.572000,0.165468
3.573000,0.290331
3.574000,0.316856
3.575000,0.300682
3.576000,0.224665
3.577000,0.061631
3.578000,-0.098814
3.579000,-0.254084
3.580000,-0.316839
3.581000,-0.317163
3.582000,-0.291284
3.583000,-0.278669
3.584000,-0.269935
3.585000,-0.263465
3.586000,-0.260230
3.587000,-0.258936
3.588000,-0.262818
3.589000,-0.265082
3.590000,-0.266376
3.591000,-0.263789
3.592000,-0.260230
3.593000,-0.253114
3.594000,-0.244380
3.595000,-0.233705
3.596000,-0.228206
3.597000,-0.223677
3.598000,-0.220119
3.599000,-0.216561
3.600000,-0.214620
3.601000,-0.213326
3.602000,-0.213326
3.603000,-0.213973
3.604000,-0.217531
3.605000,-0.225942
3.606000,-0.232411
3.607000,-0.234999
3.608000,-0.235969
3.609000,-0.233705
3.610000,-0.228206
3.611000,-0.220766
3.612000,-0.212355
3.613000,-0.207827
3.614000,-0.204268
3.615000,-0.201357
3.616000,-0.199093
3.617000,-0.197152
3.618000,-0.196505
3.619000,-0.197475
3.620000,-0.198769
3.621000,-0.204268
3.622000,-0.212679
3.623000,-0.219148
3.624000,-0.222383
3.625000,-0.223677
3.626000,-0.220766
3.627000,-0.213326
3.628000,-0.206209
3.629000,-0.199093
3.630000,-0.195534
3.631000,-0.192623
3.632000,-0.189388
3.633000,-0.187448
3.634000,-0.186477
3.635000,-0.186477
3.636000,-0.187448
3.637000,-0.189712
3.638000,-0.198769
3.639000,-0.205239
3.640000,-0.211708
3.641000,-0.213973
3.642000,-0.214620
3.643000,-0.210415
3.644000,-0.203298
3.645000,-0.195534
3.646000,-0.190682
3.647000,-0.186801
3.648000,-0.183566
3.649000,-0.181301
3.650000,-0.179684
3.651000,-0.179037
3.652000,-0.179684
3.653000,-0.180654
3.654000,-0.184860
3.655000,-0.193270
3.656000,-0.201034
3.657000,-0.205886
3.658000,-0.207827
3.659000,-0.206533
3.660000,-0.202328
3.661000,-0.194241
3.662000,-0.186801
3.663000,-0.182919
3.664000,-0.179684
3.665000,-0.177096
3.666000,-0.175155
3.667000,-0.173538
3.668000,-0.173214
3.669000,-0.173861
3.670000,-0.176126
3.671000,-0.181948
3.672000,-0.191006
3.673000,-0.197799
3.674000,-0.201034
3.675000,-0.202974
3.676000,-0.201034
3.677000,-0.193917
3.678000,-0.187448
3.679000,-0.180654
3.680000,-0.177096
3.681000,0.301653
3.682000,0.263806
3.683000,0.250867
3.684000,0.265747
3.685000,0.291625
3.686000,0.319121
3.687000,0.334648
3.688000,0.359232
3.689000,0.352115
3.690000,0.339176
3.691000,0.315886
3.692000,0.283538
3.693000,0.179701
3.694000,0.017962
3.695000,-0.169009
3.696000,-0.272199
3.697000,-0.331396
3.698000,-0.360509
3.699000,-0.356950
3.700000,-0.342717
3.701000,-0.306811
3.702000,-0.247938
3.703000,-0.197475
3.704000,-0.073906
3.705000,0.113711
3.706000,0.257336
3.707000,0.317503
3.708000,0.306505
3.709000,0.238574
3.710000,0.128591
3.711000,-0.046734
3.712000,-0.219148
3.713000,-0.300018
3.714000,-0.346599
3.715000,-0.359215
3.716000,-0.351775
3.717000,-0.330425
3.718000,-0.293549
3.719000,-0.237587
3.720000,-0.167392
3.721000,-0.018915
3.722000,0.168379
3.723000,0.296154
3.724000,0.317827
3.725000,0.298418
3.726000,0.221106
3.727000,0.055162
3.728000,-0.105931
3.729000,-0.255702
3.730000,-0.316516
3.731000,-0.354686
3.732000,-0.357597
3.733000,-0.347246
3.734000,-0.316192
3.735000,-0.277698
3.736000,-0.217531
3.737000,-0.137955
3.738000,0.063896
3.739000,0.212049
3.740000,0.314268
3.741000,0.312651
3.742000,0.279656
3.743000,0.173555
3.744000,0.013433
3.745000,-0.172244
3.746000,-0.274463
3.747000,-0.333013
3.748000,-0.361156
3.749000,-0.357597
3.750000,-0.343688
3.751000,-0.306488
3.752000,-0.253114
3.753000,-0.197799
3.754000,-0.076818
3.755000,0.117917
3.756000,0.258307
3.757000,0.316533
3.758000,0.304564
3.759000,0.236633
3.760000,0.128591
3.761000,-0.048352
3.762000,-0.220766
3.763000,-0.300342
3.764000,-0.346276
3.765000,-0.361479
3.766000,-0.353069
3.767000,-0.331719
3.768000,-0.293549
3.769000,-0.236293
3.770000,-0.166098
3.771000,-0.018268
3.772000,0.168703
3.773000,0.294536
3.774000,0.315562
3.775000,0.300035
3.776000,0.220136
3.777000,0.055485
3.778000,-0.107872
3.779000,-0.256995
3.780000,-0.318133
3.781000,-0.313281
3.782000,-0.289343
3.783000,-0.277051
3.784000,-0.268964
3.785000,-0.263789
3.786000,-0.260230
3.787000,-0.258936
3.788000,-0.262495
3.789000,-0.265082
3.790000,-0.266053
3.791000,-0.263465
3.792000,-0.259260
3.793000,-0.253114
3.794000,-0.243409
3.795000,-0.234028
3.796000,-0.227559
3.797000,-0.223354
3.798000,-0.220119
3.799000,-0.216237
3.800000,-0.213649
3.801000,-0.213649
3.802000,-0.213326
3.803000,-0.213973
3.804000,-0.217855
3.805000,-0.225942
3.806000,-0.231764
3.807000,-0.235322
3.808000,-0.236616
3.809000,-0.234028
3.810000,-0.228529
3.811000,-0.219795
3.812000,-0.211385
3.813000,-0.207827
3.814000,-0.204268
3.815000,-0.201357
3.816000,-0.198446
3.817000,-0.197152
3.818000,-0.196505
3.819000,-0.197152
3.820000,-0.198446
3.821000,-0.204592
3.822000,-0.212679
3.823000,-0.218825
3.824000,-0.222383
3.825000,-0.223354
3.826000,-0.219795
3.827000,-0.213326
3.828000,-0.205886
3.829000,-0.199093
3.830000,-0.195534
3.831000,-0.192623
3.832000,-0.189388
3.833000,-0.187771
3.834000,-0.186801
3.835000,-0.186477
3.836000,-0.187771
3.837000,-0.190035
3.838000,-0.198446
3.839000,-0.205886
3.840000,-0.211708
3.841000,-0.213649
3.842000,-0.214620
3.843000,-0.210091
3.844000,-0.202651
3.845000,-0.195534
3.846000,-0.190682
3.847000,-0.186801
3.848000,-0.183566
3.849000,-0.181301
3.850000,-0.179684
3.851000,-0.178714
3.852000,-0.180007
3.853000,-0.180978
3.854000,-0.185507
3.855000,-0.194241
3.856000,-0.200710
3.857000,-0.205886
3.858000,-0.207827
3.859000,-0.206533
3.860000,-0.202328
3.861000,-0.194241
3.862000,-0.187124
3.863000,-0.182595
3.864000,-0.180007
3.865000,-0.176773
3.866000,-0.175155
3.867000,-0.173214
3.868000,-0.173861
3.869000,-0.174185
3.870000,-0.176126
3.871000,-0.182272
3.872000,-0.191329
3.873000,-0.197799
3.874000,-0.201357
3.875000,-0.202651
3.876000,-0.200387
3.877000,-0.193917
3.878000,-0.187124
3.879000,-0.180331
3.880000,-0.177096
3.881000,0.296477
3.882000,0.260894
3.883000,0.248926
3.884000,0.263482
3.885000,0.292595
3.886000,0.317827
3.887000,0.334001
3.888000,0.360849
3.889000,0.349851
3.890000,0.339176
3.891000,0.315562
3.892000,0.278686
3.893000,0.173232
3.894000,0.013433
3.895000,-0.177743
3.896000,-0.275434
3.897000,-0.331719
3.898000,-0.358244
3.899000,-0.353392
3.900000,-0.340453
3.901000,-0.308429
3.902000,-0.249879
3.903000,-0.194564
3.904000,-0.070025
3.905000,0.122122
3.906000,0.262188
3.907000,0.317180
3.908000,0.305211
3.909000,0.239545
3.910000,0.120505
3.911000,-0.051263
3.912000,-0.223677
3.913000,-0.301959
3.914000,-0.347893
3.915000,-0.359215
3.916000,-0.348864
3.917000,-0.332690
3.918000,-0.292578
3.919000,-0.232411
3.920000,-0.164157
3.921000,-0.010828
3.922000,0.171938
3.923000,0.298094
3.924000,0.316533
3.925000,0.298741
3.926000,0.216901
3.927000,0.050310
3.928000,-0.113694
3.929000,-0.257642
3.930000,-0.319427
3.931000,-0.354686
3.932000,-0.359538
3.933000,-0.345952
3.934000,-0.317810
3.935000,-0.274463
3.936000,-0.215590
3.937000,-0.134720
3.938000,0.067130
3.939000,0.220136
3.940000,0.314268
3.941000,0.312004
3.942000,0.275451
3.943000,0.170644
3.944000,0.007610
3.945000,-0.179684
3.946000,-0.280609
3.947000,-0.332366
3.948000,-0.359538
3.949000,-0.355333
3.950000,-0.341100
3.951000,-0.308105
3.952000,-0.249555
3.953000,-0.193594
3.954000,-0.068731
3.955000,0.120828
3.956000,0.261218
3.957000,0.314592
3.958000,0.303917
3.959000,0.235340
3.960000,0.122769
3.961000,-0.051263
3.962000,-0.224001
3.963000,-0.303576
3.964000,-0.347570
3.965000,-0.360185
3.966000,-0.350157
3.967000,-0.329455
3.968000,-0.291931
3.969000,-0.236293
3.970000,-0.161246
3.971000,-0.008240
3.972000,0.175496
3.973000,0.298741
3.974000,0.317180
3.975000,0.294860
3.976000,0.218195
3.977000,0.049986
3.978000,-0.115312
3.979000,-0.259260
3.980000,-0.320397
3.981000,-0.309723
3.982000,-0.288373
3.983000,-0.276404
3.984000,-0.268317
3.985000,-0.263142
3.986000,-0.259907
3.987000,-0.257966
3.988000,-0.262818
3.989000,-0.264759
3.990000,-0.265729
3.991000,-0.263142
3.992000,-0.259583
3.993000,-0.252467
3.994000,-0.242762
3.995000,-0.233382
3.996000,-0.227235
3.997000,-0.223354
3.998000,-0.220442
3.999000,-0.216561
4.000000,-0.213973
4.001000,-0.213326
4.002000,-0.213326
4.003000,-0.213649
4.004000,-0.218178
4.005000,-0.225942
4.006000,-0.231764
4.007000,-0.234675
4.008000,-0.235646
4.009000,-0.233058
4.010000,-0.228206
4.011000,-0.219795
4.012000,-0.212032
4.013000,-0.207503
4.014000,-0.203298
4.015000,-0.200387
4.016000,-0.198769
4.017000,-0.196505
4.018000,-0.196505
4.019000,-0.197475
4.020000,-0.199093
4.021000,-0.204915
4.022000,-0.213326
4.023000,-0.219472
4.024000,-0.222060
4.025000,-0.223677
4.026000,-0.220119
4.027000,-0.213326
4.028000,-0.205562
4.029000,-0.198769
4.030000,-0.195534
4.031000,-0.192300
4.032000,-0.189388
4.033000,-0.187124
4.034000,-0.186801
4.035000,-0.186477
4.036000,-0.187448
4.037000,-0.190359
4.038000,-0.199093
4.039000,-0.205886
4.040000,-0.211708
4.041000,-0.213973
4.042000,-0.213973
4.043000,-0.210091
4.044000,-0.202974
4.045000,-0.194888
4.046000,-0.190682
4.047000,-0.186801
4.048000,-0.183889
4.049000,-0.181625
4.050000,-0.179037
4.051000,-0.179361
4.052000,-0.179684
4.053000,-0.180654
4.054000,-0.185507
4.055000,-0.193594
4.056000,-0.201357
4.057000,-0.206209
4.058000,-0.207827
4.059000,-0.207180
4.060000,-0.201357
4.061000,-0.193917
4.062000,-0.186801
4.063000,-0.182595
4.064000,-0.179684
4.065000,-0.177096
4.066000,-0.174508
4.067000,-0.173214
4.068000,-0.172891
4.069000,-0.173861
4.070000,-0.176449
4.071000,-0.182272
4.072000,-0.190682
4.073000,-0.197799
4.074000,-0.202004
4.075000,-0.202651
4.076000,-0.200387
4.077000,-0.193594
4.078000,-0.186477
4.079000,-0.180007
4.080000,-0.176449
4.081000,0.290331
4.082000,0.255072
4.083000,0.246338
4.084000,0.262188
4.085000,0.292595
4.086000,0.316533
4.087000,0.336265
4.088000,0.359232
4.089000,0.350498
4.090000,0.339176
4.091000,0.314268
4.092000,0.272540
4.093000,0.169026
4.094000,0.004052
4.095000,-0.181948
4.096000,-0.276404
4.097000,-0.333983
4.098000,-0.358891
4.099000,-0.355657
4.100000,-0.340453
4.101000,-0.306164
4.102000,-0.246644
4.103000,-0.189065
4.104000,-0.063555
4.105000,0.128268
4.106000,0.268658
4.107000,0.319121
4.108000,0.304564
4.109000,0.237604
4.110000,0.112741
4.111000,-0.054821
4.112000,-0.227559
4.113000,-0.304223
4.114000,-0.347246
4.115000,-0.361156
4.116000,-0.350804
4.117000,-0.328484
4.118000,-0.289990
4.119000,-0.233382
4.120000,-0.159952
4.121000,0.001464
4.122000,0.180025
4.123000,0.298094
4.124000,0.314592
4.125000,0.295183
4.126000,0.215931
4.127000,0.045457
4.128000,-0.119840
4.129000,-0.260230
4.130000,-0.322662
4.131000,-0.356304
4.132000,-0.357921
4.133000,-0.345305
4.134000,-0.316192
4.135000,-0.271876
4.136000,-0.213973
4.137000,-0.129545
4.138000,0.075864
4.139000,0.226282
4.140000,0.315562
4.141000,0.310387
4.142000,0.268011
4.143000,0.166115
4.144000,0.000817
4.145000,-0.185183
4.146000,-0.281580
4.147000,-0.336895
4.148000,-0.359862
4.149000,-0.355980
4.150000,-0.340777
4.151000,-0.305517
4.152000,-0.250849
4.153000,-0.191653
4.154000,-0.065496
4.155000,0.128915
4.156000,0.267364
4.157000,0.318474
4.158000,0.304564
4.159000,0.233399
4.160000,0.112094
4.161000,-0.057409
4.162000,-0.228853
4.163000,-0.308105
4.164000,-0.349187
4.165000,-0.360185
4.166000,-0.350481
4.167000,-0.328161
4.168000,-0.288696
4.169000,-0.232735
4.170000,-0.159628
4.171000,0.000494
4.172000,0.179701
4.173000,0.300035
4.174000,0.313621
4.175000,0.295830
4.176000,0.210755
4.177000,0.046104
4.178000,-0.122752
4.179000,-0.260230
4.180000,-0.321691
4.181000,-0.306488
4.182000,-0.286109
4.183000,-0.275434
4.184000,-0.267347
4.185000,-0.262495
4.186000,-0.259583
4.187000,-0.257966
4.188000,-0.262171
4.189000,-0.264759
4.190000,-0.265082
4.191000,-0.263142
4.192000,-0.258936
4.193000,-0.252143
4.194000,-0.242762
4.195000,-0.233382
4.196000,-0.227235
4.197000,-0.223030
4.198000,-0.219472
4.199000,-0.216237
4.200000,-0.214296
4.201000,-0.213002
4.202000,-0.213002
4.203000,-0.213649
4.204000,-0.218178
4.205000,-0.226588
4.206000,-0.231441
4.207000,-0.235646
4.208000,-0.236293
4.209000,-0.233058
4.210000,-0.227235
4.211000,-0.218825
4.212000,-0.211708
4.213000,-0.207180
4.214000,-0.204268
4.215000,-0.200710
4.216000,-0.198446
4.217000,-0.196828
4.218000,-0.196181
4.219000,-0.197152
4.220000,-0.199093
4.221000,-0.205239
4.222000,-0.213649
4.223000,-0.219148
4.224000,-0.222060
4.225000,-0.223030
4.226000,-0.220766
4.227000,-0.212679
4.228000,-0.204915
4.229000,-0.199093
4.230000,-0.195211
4.231000,-0.192300
4.232000,-0.189712
4.233000,-0.187124
4.234000,-0.186477
4.235000,-0.186154
4.236000,-0.187771
4.237000,-0.190035
4.238000,-0.199093
4.239000,-0.206533
4.240000,-0.211708
4.241000,-0.214296
4.242000,-0.213649
4.243000,-0.209768
4.244000,-0.202651
4.245000,-0.194241
4.246000,-0.190035
4.247000,-0.186801
4.248000,-0.183242
4.249000,-0.180654
4.250000,-0.179684
4.251000,-0.179037
4.252000,-0.179684
4.253000,-0.181301
4.254000,-0.186477
4.255000,-0.194241
4.256000,-0.201357
4.257000,-0.206533
4.258000,-0.208150
4.259000,-0.206209
4.260000,-0.201034
4.261000,-0.193917
4.262000,-0.186477
4.263000,-0.182272
4.264000,-0.179684
4.265000,-0.177096
4.266000,-0.174832
4.267000,-0.173214
4.268000,-0.172891
4.269000,-0.174185
4.270000,-0.175479
4.271000,-0.183242
4.272000,-0.191653
4.273000,-0.198122
4.274000,-0.201681
4.275000,-0.203298
4.276000,-0.200387
4.277000,-0.193270
4.278000,-0.186154
4.279000,-0.179684
4.280000,-0.176773
4.281000,0.285155
4.282000,0.252807
4.283000,0.241809
4.284000,0.258954
4.285000,0.293889
4.286000,0.317180
4.287000,0.338529
4.288000,0.356968
4.289000,0.351145
4.290000,0.336912
4.291000,0.313945
4.292000,0.266070
4.293000,0.162557
4.294000,-0.001771
4.295000,-0.188741
4.296000,-0.280286
4.297000,-0.335277
4.298000,-0.359538
4.299000,-0.355333
4.300000,-0.339159
4.301000,-0.303900
4.302000,-0.248262
4.303000,-0.188094
4.304000,-0.058379
4.305000,0.136031
4.306000,0.275774
4.307000,0.315886
4.308000,0.305211
4.309000,0.236957
4.310000,0.106918
4.311000,-0.064525
4.312000,-0.234028
4.313000,-0.308105
4.314000,-0.349510
4.315000,-0.359538
4.316000,-0.351451
4.317000,-0.323956
4.318000,-0.286432
4.319000,-0.229500
4.320000,-0.156070
4.321000,0.010522
4.322000,0.185200
4.323000,0.300359
4.324000,0.316209
4.325000,0.297448
4.326000,0.207197
4.327000,0.041576
4.328000,-0.127280
4.329000,-0.263465
4.330000,-0.322662
4.331000,-0.355010
4.332000,-0.360185
4.333000,-0.345952
4.334000,-0.314251
4.335000,-0.267670
4.336000,-0.211708
4.337000,-0.120811
4.338000,0.082011
4.339000,0.231458
4.340000,0.315562
4.341000,0.309416
4.342000,0.263159
4.343000,0.163851
4.344000,-0.005652
4.345000,-0.191653
4.346000,-0.282874
4.347000,-0.337542
4.348000,-0.358891
4.349000,-0.355980
4.350000,-0.338836
4.351000,-0.303900
4.352000,-0.246321
4.353000,-0.188094
4.354000,-0.059350
4.355000,0.134414
4.356000,0.271893
4.357000,0.316533
4.358000,0.303270
4.359000,0.235340
4.360000,0.103684
4.361000,-0.062261
4.362000,-0.235322
4.363000,-0.305517
4.364000,-0.347893
4.365000,-0.360185
4.366000,-0.350157
4.367000,-0.324279
4.368000,-0.287403
4.369000,-0.228853
4.370000,-0.154129
4.371000,0.013433
4.372000,0.187788
4.373000,0.301329
4.374000,0.316209
4.375000,0.295183
4.376000,0.205256
4.377000,0.039958
4.378000,-0.129545
4.379000,-0.262495
4.380000,-0.382182
4.381000,-0.303576
4.382000,-0.284815
4.383000,-0.273816
4.384000,-0.267023
4.385000,-0.262171
4.386000,-0.258613
4.387000,-0.257319
4.388000,-0.262171
4.389000,-0.264436
4.390000,-0.265406
4.391000,-0.262495
4.392000,-0.258613
4.393000,-0.251496
4.394000,-0.242439
4.395000,-0.232735
4.396000,-0.227235
4.397000,-0.223354
4.398000,-0.219472
4.399000,-0.216237
4.400000,-0.213973
4.401000,-0.213002
4.402000,-0.213002
4.403000,-0.213973
4.404000,-0.218178
4.405000,-0.226265
4.406000,-0.232411
4.407000,-0.235646
4.408000,-0.236293
4.409000,-0.233058
4.410000,-0.227882
4.411000,-0.218825
4.412000,-0.211061
4.413000,-0.207503
4.414000,-0.203298
4.415000,-0.200710
4.416000,-0.198446
4.417000,-0.196828
4.418000,-0.196181
4.419000,-0.196505
4.420000,-0.198769
4.421000,-0.205562
4.422000,-0.213326
4.423000,-0.219472
4.424000,-0.222383
4.425000,-0.223354
4.426000,-0.219795
4.427000,-0.213002
4.428000,-0.205239
4.429000,-0.199093
4.430000,-0.195211
4.431000,-0.191653
4.432000,-0.189388
4.433000,-0.187448
4.434000,-0.186154
4.435000,-0.186801
4.436000,-0.187448
4.437000,-0.190359
4.438000,-0.199740
4.439000,-0.206209
4.440000,-0.212032
4.441000,-0.213973
4.442000,-0.213326
4.443000,-0.209444
4.444000,-0.202328
4.445000,-0.194241
4.446000,-0.189712
4.447000,-0.186801
4.448000,-0.183566
4.449000,-0.180978
4.450000,-0.179361
4.451000,-0.178714
4.452000,-0.179361
4.453000,-0.180978
4.454000,-0.186154
4.455000,-0.194888
4.456000,-0.202004
4.457000,-0.206209
4.458000,-0.207827
4.459000,-0.205886
4.460000,-0.200710
4.461000,-0.194241
4.462000,-0.185507
4.463000,-0.182919
4.464000,-0.179037
4.465000,-0.176773
4.466000,-0.174508
4.467000,-0.174185
4.468000,-0.174185
4.469000,-0.174185
4.470000,-0.176126
4.471000,-0.183889
4.472000,-0.191329
4.473000,-0.198122
4.474000,-0.201357
4.475000,-0.202651
4.476000,-0.200063
4.477000,-0.192947
4.478000,-0.185507
4.479000,-0.179684
4.480000,0.371201
4.481000,0.277068
4.482000,0.252484
4.483000,0.238898
4.484000,0.258630
4.485000,0.296801
4.486000,0.319121
4.487000,0.345646
4.488000,0.357615
4.489000,0.350498
4.490000,0.335942
4.491000,0.312651
4.492000,0.259600
4.493000,0.160292
4.494000,-0.010181
4.495000,-0.194564
4.496000,-0.284168
4.497000,-0.335924
4.498000,-0.358568
4.499000,-0.355980
4.500000,-0.336248
4.501000,-0.299695
4.502000,-0.244056
4.503000,-0.184860
4.504000,-0.053527
4.505000,0.139913
4.506000,0.277392
4.507000,0.317827
4.508000,0.302623
4.509000,0.230811
4.510000,0.093979
4.511000,-0.069054
4.512000,-0.238881
4.513000,-0.310046
4.514000,-0.346923
4.515000,-0.358568
4.516000,-0.352098
4.517000,-0.322338
4.518000,-0.286432
4.519000,-0.227559
4.520000,-0.154129
4.521000,0.021520
4.522000,0.189729
4.523000,0.302947
4.524000,0.314268
4.525000,0.295507
4.526000,0.200727
4.527000,0.038988
4.528000,-0.138279
4.529000,-0.262171
4.530000,-0.326867
4.531000,-0.356627
4.532000,-0.359538
4.533000,-0.343364
4.534000,-0.311663
4.535000,-0.266053
4.536000,-0.210091
4.537000,-0.112724
4.538000,0.088804
4.539000,0.237927
4.540000,0.316533
4.541000,0.307799
4.542000,0.257336
4.543000,0.157705
4.544000,-0.013092
4.545000,-0.197799
4.546000,-0.288373
4.547000,-0.339159
4.548000,-0.359538
4.549000,-0.354363
4.550000,-0.338189
4.551000,-0.301636
4.552000,-0.244056
4.553000,-0.183889
4.554000,-0.050939
4.555000,0.142825
4.556000,0.277068
4.557000,0.318797
4.558000,0.302300
4.559000,0.228870
4.560000,0.093332
4.561000,-0.070672
4.562000,-0.240498
4.563000,-0.313604
4.564000,-0.350481
4.565000,-0.358568
4.566000,-0.346599
4.567000,-0.322662
4.568000,-0.285785
4.569000,-0.226912
4.570000,-0.150894
4.571000,0.024108
4.572000,0.189729
4.573000,0.304241
4.574000,0.313945
4.575000,0.295183
4.576000,0.202668
4.577000,0.038017
4.578000,-0.139896
4.579000,-0.264436
4.580000,-0.354039
4.581000,-0.300665
4.582000,-0.284168
4.583000,-0.272199
4.584000,-0.265082
4.585000,-0.261848
4.586000,-0.258936
4.587000,-0.257319
4.588000,-0.262171
4.589000,-0.264759
4.590000,-0.264759
4.591000,-0.262495
4.592000,-0.258289
4.593000,-0.251173
4.594000,-0.241468
4.595000,-0.232088
4.596000,-0.226912
4.597000,-0.222707
4.598000,-0.219472
4.599000,-0.215914
4.600000,-0.213973
4.601000,-0.212679
4.602000,-0.213326
4.603000,-0.213973
4.604000,-0.218825
4.605000,-0.226588
4.606000,-0.232088
4.607000,-0.234999
4.608000,-0.235969
4.609000,-0.233058
4.610000,-0.226265
4.611000,-0.218825
4.612000,-0.210738
4.613000,-0.206533
4.614000,-0.203945
4.615000,-0.201357
4.616000,-0.197475
4.617000,-0.197152
4.618000,-0.196181
4.619000,-0.197475
4.620000,-0.199093
4.621000,-0.206209
4.622000,-0.213973
4.623000,-0.219795
4.624000,-0.222383
4.625000,-0.222707
4.626000,-0.219472
4.627000,-0.212355
4.628000,-0.204268
4.629000,-0.198769
4.630000,-0.194564
4.631000,-0.191976
4.632000,-0.189388
4.633000,-0.187124
4.634000,-0.186801
4.635000,-0.186154
4.636000,-0.187448
4.637000,-0.191653
4.638000,-0.199093
4.639000,-0.207180
4.640000,-0.211708
4.641000,-0.213973
4.642000,-0.213002
4.643000,-0.209121
4.644000,-0.201681
4.645000,-0.193917
4.646000,-0.189712
4.647000,-0.186154
4.648000,-0.183242
4.649000,-0.180978
4.650000,-0.179684
4.651000,-0.178714
4.652000,-0.179684
4.653000,-0.180978
4.654000,-0.186154
4.655000,-0.195211
4.656000,-0.202004
4.657000,-0.206209
4.658000,-0.208150
4.659000,-0.206209
4.660000,-0.200387
4.661000,-0.193270
4.662000,-0.185507
4.663000,-0.182595
4.664000,-0.179361
4.665000,-0.176773
4.666000,-0.175479
4.667000,-0.173214
4.668000,-0.173214
4.669000,-0.174508
4.670000,-0.176449
4.671000,-0.184213
4.672000,-0.192623
4.673000,-0.198446
4.674000,-0.201681
4.675000,-0.203298
4.676000,-0.199740
4.677000,-0.193270
4.678000,-0.184860
4.679000,-0.179684
4.680000,0.346940
4.681000,0.272216
4.682000,0.245691
4.683000,0.238251
4.684000,0.257336
4.685000,0.296154
4.686000,0.316856
4.687000,0.347263
4.688000,0.357615
4.689000,0.350498
4.690000,0.333354
4.691000,0.313298
4.692000,0.255395
4.693000,0.154793
4.694000,-0.018268
4.695000,-0.200387
4.696000,-0.287726
4.697000,-0.339483
4.698000,-0.359215
4.699000,-0.354363
4.700000,-0.337542
4.701000,-0.300342
4.702000,-0.245027
4.703000,-0.180654
4.704000,-0.048352
4.705000,0.146059
4.706000,0.280627
4.707000,0.318150
4.708000,0.301976
4.709000,0.229517
4.710000,0.083628
4.711000,-0.077141
4.712000,-0.245027
4.713000,-0.310046
4.714000,-0.353716
4.715000,-0.357274
4.716000,-0.348864
4.717000,-0.322985
4.718000,-0.283197
4.719000,-0.225618
4.720000,-0.146689
4.721000,0.032842
4.722000,0.194905
4.723000,0.306828
4.724000,0.315886
4.725000,0.293242
4.726000,0.195228
4.727000,0.032842
4.728000,-0.146042
4.729000,-0.266376
4.730000,-0.326543
4.731000,-0.356304
4.732000,-0.356950
4.733000,-0.344011
4.734000,-0.312310
4.735000,-0.260230
4.736000,-0.205886
4.737000,-0.104313
4.738000,0.095597
4.739000,0.242133
4.740000,0.316856
4.741000,0.309416
4.742000,0.252160
4.743000,0.152852
4.744000,-0.022473
4.745000,-0.204268
4.746000,-0.291284
4.747000,-0.340453
4.748000,-0.359538
4.749000,-0.354363
4.750000,-0.336895
4.751000,-0.299048
4.752000,-0.243086
4.753000,-0.180654
4.754000,-0.045117
4.755000,0.149294
4.756000,0.281597
4.757000,0.318150
4.758000,0.302300
4.759000,0.229193
4.760000,0.082334
4.761000,-0.078759
4.762000,-0.246321
4.763000,-0.311663
4.764000,-0.353716
4.765000,-0.358891
4.766000,-0.349187
4.767000,-0.322985
4.768000,-0.283844
4.769000,-0.226588
4.770000,-0.144748
4.771000,0.035106
4.772000,0.196199
4.773000,0.306828
4.774000,0.314592
4.775000,0.293566
4.776000,0.194581
4.777000,0.031224
4.778000,-0.148307
4.779000,-0.264759
4.780000,-0.340777
4.781000,-0.298401
4.782000,-0.282227
4.783000,-0.271876
4.784000,-0.265406
4.785000,-0.261201
4.786000,-0.258289
4.787000,-0.257642
4.788000,-0.261848
4.789000,-0.264436
4.790000,-0.264436
4.791000,-0.262818
4.792000,-0.257642
4.793000,-0.250849
4.794000,-0.241468
4.795000,-0.231441
4.796000,-0.226912
4.797000,-0.222707
4.798000,-0.218825
4.799000,-0.215590
4.800000,-0.213973
4.801000,-0.212355
4.802000,-0.213326
4.803000,-0.214296
4.804000,-0.218501
4.805000,-0.226912
4.806000,-0.232735
4.807000,-0.234999
4.808000,-0.235646
4.809000,-0.233058
4.810000,-0.225942
4.811000,-0.218501
4.812000,-0.210415
4.813000,-0.206533
4.814000,-0.202974
4.815000,-0.200710
4.816000,-0.198446
4.817000,-0.196505
4.818000,-0.196505
4.819000,-0.197152
4.820000,-0.199740
4.821000,-0.206209
4.822000,-0.213973
4.823000,-0.220442
4.824000,-0.222707
4.825000,-0.223354
4.826000,-0.219148
4.827000,-0.212355
4.828000,-0.204268
4.829000,-0.198122
4.830000,-0.194241
4.831000,-0.191653
4.832000,-0.189065
4.833000,-0.187124
4.834000,-0.186477
4.835000,-0.186801
4.836000,-0.187771
4.837000,-0.191329
4.838000,-0.200063
4.839000,-0.206533
4.840000,-0.212032
4.841000,-0.214620
4.842000,-0.213326
4.843000,-0.209121
4.844000,-0.201357
4.845000,-0.192947
4.846000,-0.189065
4.847000,-0.186154
4.848000,-0.182919
4.849000,-0.180654
4.850000,-0.179361
4.851000,-0.179037
4.852000,-0.179684
4.853000,-0.181301
4.854000,-0.186154
4.855000,-0.195534
4.856000,-0.202328
4.857000,-0.205886
4.858000,-0.208150
4.859000,-0.206209
4.860000,-0.199740
4.861000,-0.192947
4.862000,-0.185507
4.863000,-0.182595
4.864000,-0.179361
4.865000,-0.176773
4.866000,-0.174185
4.867000,-0.173538
4.868000,-0.173538
4.869000,-0.174185
4.870000,-0.176449
4.871000,-0.184860
4.872000,-0.192300
4.873000,-0.198769
4.874000,-0.201681
4.875000,-0.202651
4.876000,-0.199416
4.877000,-0.192300
4.878000,-0.184860
4.879000,-0.179361
4.880000,0.332707
4.881000,0.268334
4.882000,0.240515
4.883000,0.234369
4.884000,0.256042
4.885000,0.293889
4.886000,0.316533
4.887000,0.350498
4.888000,0.354703
4.889000,0.349851
4.890000,0.334001
4.891000,0.310063
4.892000,0.253131
4.893000,0.153499
4.894000,-0.024738
4.895000,-0.208150
4.896000,-0.290961
4.897000,-0.338836
4.898000,-0.359862
4.899000,-0.353069
4.900000,-0.336248
4.901000,-0.298401
4.902000,-0.241792
4.903000,-0.178067
4.904000,-0.040265
4.905000,0.151882
4.906000,0.284508
4.907000,0.318797
4.908000,0.301976
4.909000,0.224665
4.910000,0.078452
4.911000,-0.084581
4.912000,-0.249555
4.913000,-0.313281
4.914000,-0.353069
4.915000,-0.358244
4.916000,-0.349187
4.917000,-0.320074
4.918000,-0.281580
4.919000,-0.223677
4.920000,-0.145395
4.921000,0.040282
4.922000,0.201374
4.923000,0.306505
4.924000,0.313945
4.925000,0.288067
4.926000,0.191993
4.927000,0.027990
4.928000,-0.156070
4.929000,-0.267023
4.930000,-0.329131
4.931000,-0.357597
4.932000,-0.358891
4.933000,-0.342394
4.934000,-0.310693
4.935000,-0.258613
4.936000,-0.204268
4.937000,-0.094933
4.938000,0.102390
4.939000,0.248279
4.940000,0.316209
4.941000,0.307799
4.942000,0.252807
4.943000,0.146706
4.944000,-0.029913
4.945000,-0.209121
4.946000,-0.293225
4.947000,-0.343688
4.948000,-0.361156
4.949000,-0.353716
4.950000,-0.336895
4.951000,-0.298401
4.952000,-0.242115
4.953000,-0.175802
4.954000,-0.038324
4.955000,0.152852
4.956000,0.286126
4.957000,0.319121
4.958000,0.299065
4.959000,0.227253
4.960000,0.074247
4.961000,-0.086846
4.962000,-0.249555
4.963000,-0.314251
4.964000,-0.353069
4.965000,-0.358244
4.966000,-0.348864
4.967000,-0.319750
4.968000,-0.282227
4.969000,-0.222060
4.970000,-0.143778
4.971000,0.044487
4.972000,0.201374
4.973000,0.305858
4.974000,0.313945
4.975000,0.284832
4.976000,0.185524
4.977000,0.029607
4.978000,-0.152512
4.979000,-0.269935
4.980000,-0.332043
4.981000,-0.296136
4.982000,-0.280609
4.983000,-0.270905
4.984000,-0.264759
4.985000,-0.260877
4.986000,-0.256995
4.987000,-0.257642
4.988000,-0.262171
4.989000,-0.264112
4.990000,-0.264759
4.991000,-0.262495
4.992000,-0.257319
4.993000,-0.250526
4.994000,-0.240822
4.995000,-0.230470
4.996000,-0.226265
4.997000,-0.223677
4.998000,-0.219148
4.999000,-0.215590
